phi[deg] B[T]
0.00 1.75198
0.50 1.75119
1.00 1.75057
1.50 1.75066
2.00 1.75085
2.50 1.75017
3.00 1.74933
3.50 1.74864
4.00 1.74837
4.50 1.74820
5.00 1.74657
5.50 1.74505
6.00 1.74365
6.50 1.74246
7.00 1.74200
7.50 1.74164
8.00 1.74153
8.50 1.74061
9.00 1.73864
9.50 1.73593
10.00 1.73331
10.50 1.73077
11.00 1.72832
11.50 1.72595
12.00 1.72366
12.50 1.72147
13.00 1.71959
13.50 1.71810
14.00 1.71558
14.50 1.71256
15.00 1.70952
15.50 1.70395
16.00 1.69844
16.50 1.69297
17.00 1.68756
17.50 1.68220
18.00 1.67659
18.50 1.67082
19.00 1.66510
19.50 1.65779
20.00 1.64698
20.50 1.63619
21.00 1.62544
21.50 1.61471
22.00 1.60401
22.50 1.59557
23.00 1.58789
23.50 1.57825
24.00 1.56703
24.50 1.55132
25.00 1.53556
25.50 1.51975
26.00 1.50390
26.50 1.48801
27.00 1.47208
27.50 1.45716
28.00 1.44384
28.50 1.42774
29.00 1.40999
29.50 1.38795
30.00 1.36461
30.50 1.34117
31.00 1.31763
31.50 1.29400
32.00 1.27027
32.50 1.24854
33.00 1.23046
33.50 1.20651
34.00 1.18027
34.50 1.15127
35.00 1.12209
35.50 1.09273
36.00 1.06320
36.50 1.03350
37.00 1.00467
37.50 0.97712
38.00 0.94465
38.50 0.91059
39.00 0.87634
39.50 0.84257
40.00 0.80864
40.50 0.77425
41.00 0.73710
41.50 0.69980
42.00 0.66350
42.50 0.62943
43.00 0.59366
43.50 0.55477
44.00 0.51736
44.50 0.48400
45.00 0.45054
45.50 0.41962
46.00 0.38860
46.50 0.35626
47.00 0.32368
47.50 0.29541
48.00 0.27041
48.50 0.24534
49.00 0.22149
49.50 0.19901
50.00 0.17962
50.50 0.16553
51.00 0.15132
51.50 0.13671
52.00 0.12210
52.50 0.10749
53.00 0.09790
53.50 0.08899
54.00 0.08058
54.50 0.07368
55.00 0.06679
55.50 0.05991
56.00 0.05304
56.50 0.04686
57.00 0.04263
57.50 0.03839
58.00 0.03415
58.50 0.03088
59.00 0.02819
59.50 0.02550
60.00 0.02281
60.50 0.02035
61.00 0.01830
61.50 0.01625
62.00 0.01462
62.50 0.01355
63.00 0.01249
63.50 0.01142
64.00 0.01036
64.50 0.00930
65.00 0.00823
65.50 0.00715
66.00 0.00642
66.50 0.00596
67.00 0.00550
67.50 0.00504
68.00 0.00458
68.50 0.00412
69.00 0.00366
69.50 0.00320
70.00 0.00275
70.50 0.00254
71.00 0.00233
71.50 0.00213
72.00 0.00193
72.50 0.00173
73.00 0.00157
73.50 0.00146
74.00 0.00134
74.50 0.00123
75.00 0.00112
75.50 0.00101
76.00 0.00090
76.50 0.00082
77.00 0.00077
77.50 0.00071
78.00 0.00066
78.50 0.00061
79.00 0.00055
79.50 0.00050
80.00 0.00045
80.50 0.00041
81.00 0.00038
81.50 0.00035
82.00 0.00033
82.50 0.00030
83.00 0.00027
83.50 0.00025
84.00 0.00023
84.50 0.00021
85.00 0.00019
85.50 0.00017
86.00 0.00015
86.50 0.00014
87.00 0.00012
87.50 0.00011
88.00 0.00009
88.50 0.00009
89.00 0.00008
89.50 0.00007
90.00 0.00006
90.00 0.00006
90.50 0.00007
91.00 0.00008
91.50 0.00009
92.00 0.00009
92.50 0.00011
93.00 0.00012
93.50 0.00014
94.00 0.00015
94.50 0.00017
95.00 0.00019
95.50 0.00021
96.00 0.00023
96.50 0.00025
97.00 0.00027
97.50 0.00030
98.00 0.00033
98.50 0.00035
99.00 0.00038
99.50 0.00041
100.00 0.00045
100.50 0.00050
101.00 0.00055
101.50 0.00061
102.00 0.00066
102.50 0.00071
103.00 0.00077
103.50 0.00082
104.00 0.00090
104.50 0.00101
105.00 0.00112
105.50 0.00123
106.00 0.00134
106.50 0.00146
107.00 0.00157
107.50 0.00173
108.00 0.00193
108.50 0.00213
109.00 0.00233
109.50 0.00254
110.00 0.00275
110.50 0.00320
111.00 0.00366
111.50 0.00412
112.00 0.00458
112.50 0.00504
113.00 0.00550
113.50 0.00596
114.00 0.00642
114.50 0.00715
115.00 0.00823
115.50 0.00930
116.00 0.01036
116.50 0.01142
117.00 0.01249
117.50 0.01355
118.00 0.01462
118.50 0.01625
119.00 0.01830
119.50 0.02035
120.00 0.02281
120.50 0.02550
121.00 0.02819
121.50 0.03088
122.00 0.03415
122.50 0.03839
123.00 0.04263
123.50 0.04686
124.00 0.05304
124.50 0.05991
125.00 0.06679
125.50 0.07368
126.00 0.08058
126.50 0.08899
127.00 0.09790
127.50 0.10749
128.00 0.12210
128.50 0.13671
129.00 0.15132
129.50 0.16553
130.00 0.17962
130.50 0.19901
131.00 0.22149
131.50 0.24534
132.00 0.27041
132.50 0.29541
133.00 0.32368
133.50 0.35626
134.00 0.38860
134.50 0.41962
135.00 0.45054
135.50 0.48400
136.00 0.51736
136.50 0.55477
137.00 0.59366
137.50 0.62943
138.00 0.66350
138.50 0.69980
139.00 0.73710
139.50 0.77425
140.00 0.80864
140.50 0.84257
141.00 0.87634
141.50 0.91059
142.00 0.94465
142.50 0.97712
143.00 1.00467
143.50 1.03350
144.00 1.06320
144.50 1.09273
145.00 1.12209
145.50 1.15127
146.00 1.18027
146.50 1.20651
147.00 1.23046
147.50 1.24854
148.00 1.27027
148.50 1.29400
149.00 1.31763
149.50 1.34117
150.00 1.36461
150.50 1.38795
151.00 1.40999
151.50 1.42774
152.00 1.44384
152.50 1.45716
153.00 1.47208
153.50 1.48801
154.00 1.50390
154.50 1.51975
155.00 1.53556
155.50 1.55132
156.00 1.56703
156.50 1.57825
157.00 1.58789
157.50 1.59557
158.00 1.60401
158.50 1.61471
159.00 1.62544
159.50 1.63619
160.00 1.64698
160.50 1.65779
161.00 1.66510
161.50 1.67082
162.00 1.67659
162.50 1.68220
163.00 1.68756
163.50 1.69297
164.00 1.69844
164.50 1.70395
165.00 1.70952
165.50 1.71256
166.00 1.71558
166.50 1.71810
167.00 1.71959
167.50 1.72147
168.00 1.72366
168.50 1.72595
169.00 1.72832
169.50 1.73077
170.00 1.73331
170.50 1.73593
171.00 1.73864
171.50 1.74061
172.00 1.74153
172.50 1.74164
173.00 1.74200
173.50 1.74246
174.00 1.74365
174.50 1.74505
175.00 1.74657
175.50 1.74820
176.00 1.74837
176.50 1.74864
177.00 1.74933
177.50 1.75017
178.00 1.75085
178.50 1.75066
179.00 1.75057
179.50 1.75119
180.00 1.75198
180.00 1.75198
180.50 1.75119
181.00 1.75057
181.50 1.75066
182.00 1.75085
182.50 1.75017
183.00 1.74933
183.50 1.74864
184.00 1.74837
184.50 1.74820
185.00 1.74657
185.50 1.74505
186.00 1.74365
186.50 1.74246
187.00 1.74200
187.50 1.74164
188.00 1.74153
188.50 1.74061
189.00 1.73864
189.50 1.73593
190.00 1.73331
190.50 1.73077
191.00 1.72832
191.50 1.72595
192.00 1.72366
192.50 1.72147
193.00 1.71959
193.50 1.71810
194.00 1.71558
194.50 1.71256
195.00 1.70952
195.50 1.70395
196.00 1.69844
196.50 1.69297
197.00 1.68756
197.50 1.68220
198.00 1.67659
198.50 1.67082
199.00 1.66510
199.50 1.65779
200.00 1.64698
200.50 1.63619
201.00 1.62544
201.50 1.61471
202.00 1.60401
202.50 1.59557
203.00 1.58789
203.50 1.57825
204.00 1.56703
204.50 1.55132
205.00 1.53556
205.50 1.51975
206.00 1.50390
206.50 1.48801
207.00 1.47208
207.50 1.45716
208.00 1.44384
208.50 1.42774
209.00 1.40999
209.50 1.38795
210.00 1.36461
210.50 1.34117
211.00 1.31763
211.50 1.29400
212.00 1.27027
212.50 1.24854
213.00 1.23046
213.50 1.20651
214.00 1.18027
214.50 1.15127
215.00 1.12209
215.50 1.09273
216.00 1.06320
216.50 1.03350
217.00 1.00467
217.50 0.97712
218.00 0.94465
218.50 0.91059
219.00 0.87634
219.50 0.84257
220.00 0.80864
220.50 0.77425
221.00 0.73710
221.50 0.69980
222.00 0.66350
222.50 0.62943
223.00 0.59366
223.50 0.55477
224.00 0.51736
224.50 0.48400
225.00 0.45054
225.50 0.41962
226.00 0.38860
226.50 0.35626
227.00 0.32368
227.50 0.29541
228.00 0.27041
228.50 0.24534
229.00 0.22149
229.50 0.19901
230.00 0.17962
230.50 0.16553
231.00 0.15132
231.50 0.13671
232.00 0.12210
232.50 0.10749
233.00 0.09790
233.50 0.08899
234.00 0.08058
234.50 0.07368
235.00 0.06679
235.50 0.05991
236.00 0.05304
236.50 0.04686
237.00 0.04263
237.50 0.03839
238.00 0.03415
238.50 0.03088
239.00 0.02819
239.50 0.02550
240.00 0.02281
240.50 0.02035
241.00 0.01830
241.50 0.01625
242.00 0.01462
242.50 0.01355
243.00 0.01249
243.50 0.01142
244.00 0.01036
244.50 0.00930
245.00 0.00823
245.50 0.00715
246.00 0.00642
246.50 0.00596
247.00 0.00550
247.50 0.00504
248.00 0.00458
248.50 0.00412
249.00 0.00366
249.50 0.00320
250.00 0.00275
250.50 0.00254
251.00 0.00233
251.50 0.00213
252.00 0.00193
252.50 0.00173
253.00 0.00157
253.50 0.00146
254.00 0.00134
254.50 0.00123
255.00 0.00112
255.50 0.00101
256.00 0.00090
256.50 0.00082
257.00 0.00077
257.50 0.00071
258.00 0.00066
258.50 0.00061
259.00 0.00055
259.50 0.00050
260.00 0.00045
260.50 0.00041
261.00 0.00038
261.50 0.00035
262.00 0.00033
262.50 0.00030
263.00 0.00027
263.50 0.00025
264.00 0.00023
264.50 0.00021
265.00 0.00019
265.50 0.00017
266.00 0.00015
266.50 0.00014
267.00 0.00012
267.50 0.00011
268.00 0.00009
268.50 0.00009
269.00 0.00008
269.50 0.00007
270.00 0.00006
270.00 0.00006
270.50 0.00007
271.00 0.00008
271.50 0.00009
272.00 0.00009
272.50 0.00011
273.00 0.00012
273.50 0.00014
274.00 0.00015
274.50 0.00017
275.00 0.00019
275.50 0.00021
276.00 0.00023
276.50 0.00025
277.00 0.00027
277.50 0.00030
278.00 0.00033
278.50 0.00035
279.00 0.00038
279.50 0.00041
280.00 0.00045
280.50 0.00050
281.00 0.00055
281.50 0.00061
282.00 0.00066
282.50 0.00071
283.00 0.00077
283.50 0.00082
284.00 0.00090
284.50 0.00101
285.00 0.00112
285.50 0.00123
286.00 0.00134
286.50 0.00146
287.00 0.00157
287.50 0.00173
288.00 0.00193
288.50 0.00213
289.00 0.00233
289.50 0.00254
290.00 0.00275
290.50 0.00320
291.00 0.00366
291.50 0.00412
292.00 0.00458
292.50 0.00504
293.00 0.00550
293.50 0.00596
294.00 0.00642
294.50 0.00715
295.00 0.00823
295.50 0.00930
296.00 0.01036
296.50 0.01142
297.00 0.01249
297.50 0.01355
298.00 0.01462
298.50 0.01625
299.00 0.01830
299.50 0.02035
300.00 0.02281
300.50 0.02550
301.00 0.02819
301.50 0.03088
302.00 0.03415
302.50 0.03839
303.00 0.04263
303.50 0.04686
304.00 0.05304
304.50 0.05991
305.00 0.06679
305.50 0.07368
306.00 0.08058
306.50 0.08899
307.00 0.09790
307.50 0.10749
308.00 0.12210
308.50 0.13671
309.00 0.15132
309.50 0.16553
310.00 0.17962
310.50 0.19901
311.00 0.22149
311.50 0.24534
312.00 0.27041
312.50 0.29541
313.00 0.32368
313.50 0.35626
314.00 0.38860
314.50 0.41962
315.00 0.45054
315.50 0.48400
316.00 0.51736
316.50 0.55477
317.00 0.59366
317.50 0.62943
318.00 0.66350
318.50 0.69980
319.00 0.73710
319.50 0.77425
320.00 0.80864
320.50 0.84257
321.00 0.87634
321.50 0.91059
322.00 0.94465
322.50 0.97712
323.00 1.00467
323.50 1.03350
324.00 1.06320
324.50 1.09273
325.00 1.12209
325.50 1.15127
326.00 1.18027
326.50 1.20651
327.00 1.23046
327.50 1.24854
328.00 1.27027
328.50 1.29400
329.00 1.31763
329.50 1.34117
330.00 1.36461
330.50 1.38795
331.00 1.40999
331.50 1.42774
332.00 1.44384
332.50 1.45716
333.00 1.47208
333.50 1.48801
334.00 1.50390
334.50 1.51975
335.00 1.53556
335.50 1.55132
336.00 1.56703
336.50 1.57825
337.00 1.58789
337.50 1.59557
338.00 1.60401
338.50 1.61471
339.00 1.62544
339.50 1.63619
340.00 1.64698
340.50 1.65779
341.00 1.66510
341.50 1.67082
342.00 1.67659
342.50 1.68220
343.00 1.68756
343.50 1.69297
344.00 1.69844
344.50 1.70395
345.00 1.70952
345.50 1.71256
346.00 1.71558
346.50 1.71810
347.00 1.71959
347.50 1.72147
348.00 1.72366
348.50 1.72595
349.00 1.72832
349.50 1.73077
350.00 1.73331
350.50 1.73593
351.00 1.73864
351.50 1.74061
352.00 1.74153
352.50 1.74164
353.00 1.74200
353.50 1.74246
354.00 1.74365
354.50 1.74505
355.00 1.74657
355.50 1.74820
356.00 1.74837
356.50 1.74864
357.00 1.74933
357.50 1.75017
358.00 1.75085
358.50 1.75066
359.00 1.75057
359.50 1.75119
360.00 1.75198
