phi[deg] B[T]
0.00 1.60956
0.50 1.60924
1.00 1.60905
1.50 1.60897
2.00 1.60902
2.50 1.60926
3.00 1.60950
3.50 1.60988
4.00 1.61038
4.50 1.61100
5.00 1.61156
5.50 1.61134
6.00 1.61124
6.50 1.61128
7.00 1.61233
7.50 1.61349
8.00 1.61449
8.50 1.61515
9.00 1.61524
9.50 1.61423
10.00 1.61331
10.50 1.61249
11.00 1.61176
11.50 1.61126
12.00 1.61127
12.50 1.61138
13.00 1.61020
13.50 1.60901
14.00 1.60640
14.50 1.60342
15.00 1.60052
15.50 1.59769
16.00 1.59494
16.50 1.59227
17.00 1.59121
17.50 1.59038
18.00 1.58653
18.50 1.58257
19.00 1.57626
19.50 1.56999
20.00 1.56376
20.50 1.55758
21.00 1.55144
21.50 1.54541
22.00 1.53944
22.50 1.53207
23.00 1.52210
23.50 1.51217
24.00 1.50119
24.50 1.49007
25.00 1.47900
25.50 1.46796
26.00 1.45696
26.50 1.44603
27.00 1.43579
27.50 1.42555
28.00 1.41530
28.50 1.40324
29.00 1.38950
29.50 1.37577
30.00 1.36206
30.50 1.34836
31.00 1.33468
31.50 1.32188
32.00 1.30958
32.50 1.29446
33.00 1.27935
33.50 1.26381
34.00 1.24780
34.50 1.23222
35.00 1.21711
35.50 1.20198
36.00 1.18548
36.50 1.16550
37.00 1.14701
37.50 1.13121
38.00 1.11536
38.50 1.09927
39.00 1.07817
39.50 1.05700
40.00 1.03778
40.50 1.01777
41.00 0.99595
41.50 0.97403
42.00 0.95285
42.50 0.92976
43.00 0.90687
43.50 0.88351
44.00 0.85636
44.50 0.83077
45.00 0.80668
45.50 0.77850
46.00 0.75033
46.50 0.72219
47.00 0.69104
47.50 0.66223
48.00 0.63256
48.50 0.60032
49.00 0.56993
49.50 0.53938
50.00 0.50625
50.50 0.47224
51.00 0.44018
51.50 0.41272
52.00 0.38516
52.50 0.35642
53.00 0.32494
53.50 0.29339
54.00 0.26667
54.50 0.24228
55.00 0.21929
55.50 0.20125
56.00 0.18320
56.50 0.16538
57.00 0.14896
57.50 0.13252
58.00 0.11891
58.50 0.10918
59.00 0.09944
59.50 0.08995
60.00 0.08087
60.50 0.07179
61.00 0.06317
61.50 0.05813
62.00 0.05308
62.50 0.04802
63.00 0.04297
63.50 0.03790
64.00 0.03360
64.50 0.03098
65.00 0.02836
65.50 0.02573
66.00 0.02310
66.50 0.02047
67.00 0.01815
67.50 0.01666
68.00 0.01517
68.50 0.01366
69.00 0.01212
69.50 0.01074
70.00 0.00991
70.50 0.00909
71.00 0.00827
71.50 0.00745
72.00 0.00662
72.50 0.00578
73.00 0.00533
73.50 0.00492
74.00 0.00450
74.50 0.00409
75.00 0.00368
75.50 0.00327
76.00 0.00286
76.50 0.00254
77.00 0.00235
77.50 0.00216
78.00 0.00197
78.50 0.00178
79.00 0.00158
79.50 0.00139
80.00 0.00125
80.50 0.00116
81.00 0.00107
81.50 0.00098
82.00 0.00089
82.50 0.00079
83.00 0.00073
83.50 0.00067
84.00 0.00062
84.50 0.00057
85.00 0.00051
85.50 0.00047
86.00 0.00044
86.50 0.00041
87.00 0.00039
87.50 0.00036
88.00 0.00035
88.50 0.00034
89.00 0.00032
89.50 0.00031
90.00 0.00030
90.00 0.00030
90.50 0.00031
91.00 0.00032
91.50 0.00034
92.00 0.00035
92.50 0.00036
93.00 0.00039
93.50 0.00041
94.00 0.00044
94.50 0.00047
95.00 0.00051
95.50 0.00057
96.00 0.00062
96.50 0.00067
97.00 0.00073
97.50 0.00079
98.00 0.00089
98.50 0.00098
99.00 0.00107
99.50 0.00116
100.00 0.00125
100.50 0.00139
101.00 0.00158
101.50 0.00178
102.00 0.00197
102.50 0.00216
103.00 0.00235
103.50 0.00254
104.00 0.00286
104.50 0.00327
105.00 0.00368
105.50 0.00409
106.00 0.00450
106.50 0.00492
107.00 0.00533
107.50 0.00578
108.00 0.00662
108.50 0.00745
109.00 0.00827
109.50 0.00909
110.00 0.00991
110.50 0.01074
111.00 0.01212
111.50 0.01366
112.00 0.01517
112.50 0.01666
113.00 0.01815
113.50 0.02047
114.00 0.02310
114.50 0.02573
115.00 0.02836
115.50 0.03098
116.00 0.03360
116.50 0.03790
117.00 0.04297
117.50 0.04802
118.00 0.05308
118.50 0.05813
119.00 0.06317
119.50 0.07179
120.00 0.08087
120.50 0.08995
121.00 0.09944
121.50 0.10918
122.00 0.11891
122.50 0.13252
123.00 0.14896
123.50 0.16538
124.00 0.18320
124.50 0.20125
125.00 0.21929
125.50 0.24228
126.00 0.26667
126.50 0.29339
127.00 0.32494
127.50 0.35642
128.00 0.38516
128.50 0.41272
129.00 0.44018
129.50 0.47224
130.00 0.50625
130.50 0.53938
131.00 0.56993
131.50 0.60032
132.00 0.63256
132.50 0.66223
133.00 0.69104
133.50 0.72219
134.00 0.75033
134.50 0.77850
135.00 0.80668
135.50 0.83077
136.00 0.85636
136.50 0.88351
137.00 0.90687
137.50 0.92976
138.00 0.95285
138.50 0.97403
139.00 0.99595
139.50 1.01777
140.00 1.03778
140.50 1.05700
141.00 1.07817
141.50 1.09927
142.00 1.11536
142.50 1.13121
143.00 1.14701
143.50 1.16550
144.00 1.18548
144.50 1.20198
145.00 1.21711
145.50 1.23222
146.00 1.24780
146.50 1.26381
147.00 1.27935
147.50 1.29446
148.00 1.30958
148.50 1.32188
149.00 1.33468
149.50 1.34836
150.00 1.36206
150.50 1.37577
151.00 1.38950
151.50 1.40324
152.00 1.41530
152.50 1.42555
153.00 1.43579
153.50 1.44603
154.00 1.45696
154.50 1.46796
155.00 1.47900
155.50 1.49007
156.00 1.50119
156.50 1.51217
157.00 1.52210
157.50 1.53207
158.00 1.53944
158.50 1.54541
159.00 1.55144
159.50 1.55758
160.00 1.56376
160.50 1.56999
161.00 1.57626
161.50 1.58257
162.00 1.58653
162.50 1.59038
163.00 1.59121
163.50 1.59227
164.00 1.59494
164.50 1.59769
165.00 1.60052
165.50 1.60342
166.00 1.60640
166.50 1.60901
167.00 1.61020
167.50 1.61138
168.00 1.61127
168.50 1.61126
169.00 1.61176
169.50 1.61249
170.00 1.61331
170.50 1.61423
171.00 1.61524
171.50 1.61515
172.00 1.61449
172.50 1.61349
173.00 1.61233
173.50 1.61128
174.00 1.61124
174.50 1.61134
175.00 1.61156
175.50 1.61100
176.00 1.61038
176.50 1.60988
177.00 1.60950
177.50 1.60926
178.00 1.60902
178.50 1.60897
179.00 1.60905
179.50 1.60924
180.00 1.60956
180.00 1.60956
180.50 1.60924
181.00 1.60905
181.50 1.60897
182.00 1.60902
182.50 1.60926
183.00 1.60950
183.50 1.60988
184.00 1.61038
184.50 1.61100
185.00 1.61156
185.50 1.61134
186.00 1.61124
186.50 1.61128
187.00 1.61233
187.50 1.61349
188.00 1.61449
188.50 1.61515
189.00 1.61524
189.50 1.61423
190.00 1.61331
190.50 1.61249
191.00 1.61176
191.50 1.61126
192.00 1.61127
192.50 1.61138
193.00 1.61020
193.50 1.60901
194.00 1.60640
194.50 1.60342
195.00 1.60052
195.50 1.59769
196.00 1.59494
196.50 1.59227
197.00 1.59121
197.50 1.59038
198.00 1.58653
198.50 1.58257
199.00 1.57626
199.50 1.56999
200.00 1.56376
200.50 1.55758
201.00 1.55144
201.50 1.54541
202.00 1.53944
202.50 1.53207
203.00 1.52210
203.50 1.51217
204.00 1.50119
204.50 1.49007
205.00 1.47900
205.50 1.46796
206.00 1.45696
206.50 1.44603
207.00 1.43579
207.50 1.42555
208.00 1.41530
208.50 1.40324
209.00 1.38950
209.50 1.37577
210.00 1.36206
210.50 1.34836
211.00 1.33468
211.50 1.32188
212.00 1.30958
212.50 1.29446
213.00 1.27935
213.50 1.26381
214.00 1.24780
214.50 1.23222
215.00 1.21711
215.50 1.20198
216.00 1.18548
216.50 1.16550
217.00 1.14701
217.50 1.13121
218.00 1.11536
218.50 1.09927
219.00 1.07817
219.50 1.05700
220.00 1.03778
220.50 1.01777
221.00 0.99595
221.50 0.97403
222.00 0.95285
222.50 0.92976
223.00 0.90687
223.50 0.88351
224.00 0.85636
224.50 0.83077
225.00 0.80668
225.50 0.77850
226.00 0.75033
226.50 0.72219
227.00 0.69104
227.50 0.66223
228.00 0.63256
228.50 0.60032
229.00 0.56993
229.50 0.53938
230.00 0.50625
230.50 0.47224
231.00 0.44018
231.50 0.41272
232.00 0.38516
232.50 0.35642
233.00 0.32494
233.50 0.29339
234.00 0.26667
234.50 0.24228
235.00 0.21929
235.50 0.20125
236.00 0.18320
236.50 0.16538
237.00 0.14896
237.50 0.13252
238.00 0.11891
238.50 0.10918
239.00 0.09944
239.50 0.08995
240.00 0.08087
240.50 0.07179
241.00 0.06317
241.50 0.05813
242.00 0.05308
242.50 0.04802
243.00 0.04297
243.50 0.03790
244.00 0.03360
244.50 0.03098
245.00 0.02836
245.50 0.02573
246.00 0.02310
246.50 0.02047
247.00 0.01815
247.50 0.01666
248.00 0.01517
248.50 0.01366
249.00 0.01212
249.50 0.01074
250.00 0.00991
250.50 0.00909
251.00 0.00827
251.50 0.00745
252.00 0.00662
252.50 0.00578
253.00 0.00533
253.50 0.00492
254.00 0.00450
254.50 0.00409
255.00 0.00368
255.50 0.00327
256.00 0.00286
256.50 0.00254
257.00 0.00235
257.50 0.00216
258.00 0.00197
258.50 0.00178
259.00 0.00158
259.50 0.00139
260.00 0.00125
260.50 0.00116
261.00 0.00107
261.50 0.00098
262.00 0.00089
262.50 0.00079
263.00 0.00073
263.50 0.00067
264.00 0.00062
264.50 0.00057
265.00 0.00051
265.50 0.00047
266.00 0.00044
266.50 0.00041
267.00 0.00039
267.50 0.00036
268.00 0.00035
268.50 0.00034
269.00 0.00032
269.50 0.00031
270.00 0.00030
270.00 0.00030
270.50 0.00031
271.00 0.00032
271.50 0.00034
272.00 0.00035
272.50 0.00036
273.00 0.00039
273.50 0.00041
274.00 0.00044
274.50 0.00047
275.00 0.00051
275.50 0.00057
276.00 0.00062
276.50 0.00067
277.00 0.00073
277.50 0.00079
278.00 0.00089
278.50 0.00098
279.00 0.00107
279.50 0.00116
280.00 0.00125
280.50 0.00139
281.00 0.00158
281.50 0.00178
282.00 0.00197
282.50 0.00216
283.00 0.00235
283.50 0.00254
284.00 0.00286
284.50 0.00327
285.00 0.00368
285.50 0.00409
286.00 0.00450
286.50 0.00492
287.00 0.00533
287.50 0.00578
288.00 0.00662
288.50 0.00745
289.00 0.00827
289.50 0.00909
290.00 0.00991
290.50 0.01074
291.00 0.01212
291.50 0.01366
292.00 0.01517
292.50 0.01666
293.00 0.01815
293.50 0.02047
294.00 0.02310
294.50 0.02573
295.00 0.02836
295.50 0.03098
296.00 0.03360
296.50 0.03790
297.00 0.04297
297.50 0.04802
298.00 0.05308
298.50 0.05813
299.00 0.06317
299.50 0.07179
300.00 0.08087
300.50 0.08995
301.00 0.09944
301.50 0.10918
302.00 0.11891
302.50 0.13252
303.00 0.14896
303.50 0.16538
304.00 0.18320
304.50 0.20125
305.00 0.21929
305.50 0.24228
306.00 0.26667
306.50 0.29339
307.00 0.32494
307.50 0.35642
308.00 0.38516
308.50 0.41272
309.00 0.44018
309.50 0.47224
310.00 0.50625
310.50 0.53938
311.00 0.56993
311.50 0.60032
312.00 0.63256
312.50 0.66223
313.00 0.69104
313.50 0.72219
314.00 0.75033
314.50 0.77850
315.00 0.80668
315.50 0.83077
316.00 0.85636
316.50 0.88351
317.00 0.90687
317.50 0.92976
318.00 0.95285
318.50 0.97403
319.00 0.99595
319.50 1.01777
320.00 1.03778
320.50 1.05700
321.00 1.07817
321.50 1.09927
322.00 1.11536
322.50 1.13121
323.00 1.14701
323.50 1.16550
324.00 1.18548
324.50 1.20198
325.00 1.21711
325.50 1.23222
326.00 1.24780
326.50 1.26381
327.00 1.27935
327.50 1.29446
328.00 1.30958
328.50 1.32188
329.00 1.33468
329.50 1.34836
330.00 1.36206
330.50 1.37577
331.00 1.38950
331.50 1.40324
332.00 1.41530
332.50 1.42555
333.00 1.43579
333.50 1.44603
334.00 1.45696
334.50 1.46796
335.00 1.47900
335.50 1.49007
336.00 1.50119
336.50 1.51217
337.00 1.52210
337.50 1.53207
338.00 1.53944
338.50 1.54541
339.00 1.55144
339.50 1.55758
340.00 1.56376
340.50 1.56999
341.00 1.57626
341.50 1.58257
342.00 1.58653
342.50 1.59038
343.00 1.59121
343.50 1.59227
344.00 1.59494
344.50 1.59769
345.00 1.60052
345.50 1.60342
346.00 1.60640
346.50 1.60901
347.00 1.61020
347.50 1.61138
348.00 1.61127
348.50 1.61126
349.00 1.61176
349.50 1.61249
350.00 1.61331
350.50 1.61423
351.00 1.61524
351.50 1.61515
352.00 1.61449
352.50 1.61349
353.00 1.61233
353.50 1.61128
354.00 1.61124
354.50 1.61134
355.00 1.61156
355.50 1.61100
356.00 1.61038
356.50 1.60988
357.00 1.60950
357.50 1.60926
358.00 1.60902
358.50 1.60897
359.00 1.60905
359.50 1.60924
360.00 1.60956
