phi[deg] B[T]
0.00 1.49285
0.50 1.49208
1.00 1.49141
1.50 1.49086
2.00 1.49036
2.50 1.48964
3.00 1.48904
3.50 1.48856
4.00 1.48827
4.50 1.48828
5.00 1.48842
5.50 1.48888
6.00 1.48955
6.50 1.49034
7.00 1.49110
7.50 1.49197
8.00 1.49296
8.50 1.49407
9.00 1.49639
9.50 1.49899
10.00 1.50108
10.50 1.50181
11.00 1.50229
11.50 1.50285
12.00 1.50350
12.50 1.50254
13.00 1.50104
13.50 1.49958
14.00 1.49779
14.50 1.49609
15.00 1.49447
15.50 1.49243
16.00 1.49036
16.50 1.48830
17.00 1.48548
17.50 1.48274
18.00 1.48010
18.50 1.47797
19.00 1.47716
19.50 1.47627
20.00 1.47512
20.50 1.47054
21.00 1.46599
21.50 1.46148
22.00 1.45683
22.50 1.45095
23.00 1.44511
23.50 1.43683
24.00 1.42588
24.50 1.41495
25.00 1.40398
25.50 1.38831
26.00 1.37267
26.50 1.35716
27.00 1.34178
27.50 1.32645
28.00 1.31116
28.50 1.29543
29.00 1.27930
29.50 1.26475
30.00 1.24968
30.50 1.23384
31.00 1.21806
31.50 1.20233
32.00 1.18703
32.50 1.17331
33.00 1.15965
33.50 1.14255
34.00 1.12478
34.50 1.10704
35.00 1.08932
35.50 1.07288
36.00 1.05639
36.50 1.03558
37.00 1.01484
37.50 0.99532
38.00 0.97569
38.50 0.95546
39.00 0.93527
39.50 0.91531
40.00 0.89540
40.50 0.87582
41.00 0.85698
41.50 0.83823
42.00 0.82013
42.50 0.80208
43.00 0.78454
43.50 0.76752
44.00 0.75092
44.50 0.73486
45.00 0.71890
45.50 0.70423
46.00 0.68953
46.50 0.67601
47.00 0.66302
47.50 0.65006
48.00 0.63832
48.50 0.62917
49.00 0.61881
49.50 0.60700
50.00 0.59519
50.50 0.58601
51.00 0.57890
51.50 0.56913
52.00 0.55589
52.50 0.54258
53.00 0.52919
53.50 0.51800
54.00 0.50891
54.50 0.49443
55.00 0.47609
55.50 0.45758
56.00 0.43890
56.50 0.42004
57.00 0.40257
57.50 0.38517
58.00 0.35618
58.50 0.33180
59.00 0.30894
59.50 0.28594
60.00 0.26246
60.50 0.23675
61.00 0.21091
61.50 0.18495
62.00 0.16150
62.50 0.14212
63.00 0.12793
63.50 0.11364
64.00 0.09923
64.50 0.08479
65.00 0.07033
65.50 0.06228
66.00 0.05511
66.50 0.04794
67.00 0.04095
67.50 0.03400
68.00 0.03009
68.50 0.02657
69.00 0.02315
69.50 0.01973
70.00 0.01632
70.50 0.01459
71.00 0.01292
71.50 0.01125
72.00 0.00958
72.50 0.00800
73.00 0.00700
73.50 0.00623
74.00 0.00549
74.50 0.00474
75.00 0.00399
75.50 0.00341
76.00 0.00302
76.50 0.00263
77.00 0.00226
77.50 0.00193
78.00 0.00167
78.50 0.00150
79.00 0.00133
79.50 0.00117
80.00 0.00101
80.50 0.00086
81.00 0.00076
81.50 0.00067
82.00 0.00059
82.50 0.00053
83.00 0.00047
83.50 0.00042
84.00 0.00037
84.50 0.00032
85.00 0.00029
85.50 0.00026
86.00 0.00022
86.50 0.00019
87.00 0.00017
87.50 0.00014
88.00 0.00012
88.50 0.00010
89.00 0.00009
89.50 0.00008
90.00 0.00006
90.00 0.00006
90.50 0.00008
91.00 0.00009
91.50 0.00010
92.00 0.00012
92.50 0.00014
93.00 0.00017
93.50 0.00019
94.00 0.00022
94.50 0.00026
95.00 0.00029
95.50 0.00032
96.00 0.00037
96.50 0.00042
97.00 0.00047
97.50 0.00053
98.00 0.00059
98.50 0.00067
99.00 0.00076
99.50 0.00086
100.00 0.00101
100.50 0.00117
101.00 0.00133
101.50 0.00150
102.00 0.00167
102.50 0.00193
103.00 0.00226
103.50 0.00263
104.00 0.00302
104.50 0.00341
105.00 0.00399
105.50 0.00474
106.00 0.00549
106.50 0.00623
107.00 0.00700
107.50 0.00800
108.00 0.00958
108.50 0.01125
109.00 0.01292
109.50 0.01459
110.00 0.01632
110.50 0.01973
111.00 0.02315
111.50 0.02657
112.00 0.03009
112.50 0.03400
113.00 0.04095
113.50 0.04794
114.00 0.05511
114.50 0.06228
115.00 0.07033
115.50 0.08479
116.00 0.09923
116.50 0.11364
117.00 0.12793
117.50 0.14212
118.00 0.16150
118.50 0.18495
119.00 0.21091
119.50 0.23675
120.00 0.26246
120.50 0.28594
121.00 0.30894
121.50 0.33180
122.00 0.35618
122.50 0.38517
123.00 0.40257
123.50 0.42004
124.00 0.43890
124.50 0.45758
125.00 0.47609
125.50 0.49443
126.00 0.50891
126.50 0.51800
127.00 0.52919
127.50 0.54258
128.00 0.55589
128.50 0.56913
129.00 0.57890
129.50 0.58601
130.00 0.59519
130.50 0.60700
131.00 0.61881
131.50 0.62917
132.00 0.63832
132.50 0.65006
133.00 0.66302
133.50 0.67601
134.00 0.68953
134.50 0.70423
135.00 0.71890
135.50 0.73486
136.00 0.75092
136.50 0.76752
137.00 0.78454
137.50 0.80208
138.00 0.82013
138.50 0.83823
139.00 0.85698
139.50 0.87582
140.00 0.89540
140.50 0.91531
141.00 0.93527
141.50 0.95546
142.00 0.97569
142.50 0.99532
143.00 1.01484
143.50 1.03558
144.00 1.05639
144.50 1.07288
145.00 1.08932
145.50 1.10704
146.00 1.12478
146.50 1.14255
147.00 1.15965
147.50 1.17331
148.00 1.18703
148.50 1.20233
149.00 1.21806
149.50 1.23384
150.00 1.24968
150.50 1.26475
151.00 1.27930
151.50 1.29543
152.00 1.31116
152.50 1.32645
153.00 1.34178
153.50 1.35716
154.00 1.37267
154.50 1.38831
155.00 1.40398
155.50 1.41495
156.00 1.42588
156.50 1.43683
157.00 1.44511
157.50 1.45095
158.00 1.45683
158.50 1.46148
159.00 1.46599
159.50 1.47054
160.00 1.47512
160.50 1.47627
161.00 1.47716
161.50 1.47797
162.00 1.48010
162.50 1.48274
163.00 1.48548
163.50 1.48830
164.00 1.49036
164.50 1.49243
165.00 1.49447
165.50 1.49609
166.00 1.49779
166.50 1.49958
167.00 1.50104
167.50 1.50254
168.00 1.50350
168.50 1.50285
169.00 1.50229
169.50 1.50181
170.00 1.50108
170.50 1.49899
171.00 1.49639
171.50 1.49407
172.00 1.49296
172.50 1.49197
173.00 1.49110
173.50 1.49034
174.00 1.48955
174.50 1.48888
175.00 1.48842
175.50 1.48828
176.00 1.48827
176.50 1.48856
177.00 1.48904
177.50 1.48964
178.00 1.49036
178.50 1.49086
179.00 1.49141
179.50 1.49208
180.00 1.49285
180.00 1.49285
180.50 1.49208
181.00 1.49141
181.50 1.49086
182.00 1.49036
182.50 1.48964
183.00 1.48904
183.50 1.48856
184.00 1.48827
184.50 1.48828
185.00 1.48842
185.50 1.48888
186.00 1.48955
186.50 1.49034
187.00 1.49110
187.50 1.49197
188.00 1.49296
188.50 1.49407
189.00 1.49639
189.50 1.49899
190.00 1.50108
190.50 1.50181
191.00 1.50229
191.50 1.50285
192.00 1.50350
192.50 1.50254
193.00 1.50104
193.50 1.49958
194.00 1.49779
194.50 1.49609
195.00 1.49447
195.50 1.49243
196.00 1.49036
196.50 1.48830
197.00 1.48548
197.50 1.48274
198.00 1.48010
198.50 1.47797
199.00 1.47716
199.50 1.47627
200.00 1.47512
200.50 1.47054
201.00 1.46599
201.50 1.46148
202.00 1.45683
202.50 1.45095
203.00 1.44511
203.50 1.43683
204.00 1.42588
204.50 1.41495
205.00 1.40398
205.50 1.38831
206.00 1.37267
206.50 1.35716
207.00 1.34178
207.50 1.32645
208.00 1.31116
208.50 1.29543
209.00 1.27930
209.50 1.26475
210.00 1.24968
210.50 1.23384
211.00 1.21806
211.50 1.20233
212.00 1.18703
212.50 1.17331
213.00 1.15965
213.50 1.14255
214.00 1.12478
214.50 1.10704
215.00 1.08932
215.50 1.07288
216.00 1.05639
216.50 1.03558
217.00 1.01484
217.50 0.99532
218.00 0.97569
218.50 0.95546
219.00 0.93527
219.50 0.91531
220.00 0.89540
220.50 0.87582
221.00 0.85698
221.50 0.83823
222.00 0.82013
222.50 0.80208
223.00 0.78454
223.50 0.76752
224.00 0.75092
224.50 0.73486
225.00 0.71890
225.50 0.70423
226.00 0.68953
226.50 0.67601
227.00 0.66302
227.50 0.65006
228.00 0.63832
228.50 0.62917
229.00 0.61881
229.50 0.60700
230.00 0.59519
230.50 0.58601
231.00 0.57890
231.50 0.56913
232.00 0.55589
232.50 0.54258
233.00 0.52919
233.50 0.51800
234.00 0.50891
234.50 0.49443
235.00 0.47609
235.50 0.45758
236.00 0.43890
236.50 0.42004
237.00 0.40257
237.50 0.38517
238.00 0.35618
238.50 0.33180
239.00 0.30894
239.50 0.28594
240.00 0.26246
240.50 0.23675
241.00 0.21091
241.50 0.18495
242.00 0.16150
242.50 0.14212
243.00 0.12793
243.50 0.11364
244.00 0.09923
244.50 0.08479
245.00 0.07033
245.50 0.06228
246.00 0.05511
246.50 0.04794
247.00 0.04095
247.50 0.03400
248.00 0.03009
248.50 0.02657
249.00 0.02315
249.50 0.01973
250.00 0.01632
250.50 0.01459
251.00 0.01292
251.50 0.01125
252.00 0.00958
252.50 0.00800
253.00 0.00700
253.50 0.00623
254.00 0.00549
254.50 0.00474
255.00 0.00399
255.50 0.00341
256.00 0.00302
256.50 0.00263
257.00 0.00226
257.50 0.00193
258.00 0.00167
258.50 0.00150
259.00 0.00133
259.50 0.00117
260.00 0.00101
260.50 0.00086
261.00 0.00076
261.50 0.00067
262.00 0.00059
262.50 0.00053
263.00 0.00047
263.50 0.00042
264.00 0.00037
264.50 0.00032
265.00 0.00029
265.50 0.00026
266.00 0.00022
266.50 0.00019
267.00 0.00017
267.50 0.00014
268.00 0.00012
268.50 0.00010
269.00 0.00009
269.50 0.00008
270.00 0.00006
270.00 0.00006
270.50 0.00008
271.00 0.00009
271.50 0.00010
272.00 0.00012
272.50 0.00014
273.00 0.00017
273.50 0.00019
274.00 0.00022
274.50 0.00026
275.00 0.00029
275.50 0.00032
276.00 0.00037
276.50 0.00042
277.00 0.00047
277.50 0.00053
278.00 0.00059
278.50 0.00067
279.00 0.00076
279.50 0.00086
280.00 0.00101
280.50 0.00117
281.00 0.00133
281.50 0.00150
282.00 0.00167
282.50 0.00193
283.00 0.00226
283.50 0.00263
284.00 0.00302
284.50 0.00341
285.00 0.00399
285.50 0.00474
286.00 0.00549
286.50 0.00623
287.00 0.00700
287.50 0.00800
288.00 0.00958
288.50 0.01125
289.00 0.01292
289.50 0.01459
290.00 0.01632
290.50 0.01973
291.00 0.02315
291.50 0.02657
292.00 0.03009
292.50 0.03400
293.00 0.04095
293.50 0.04794
294.00 0.05511
294.50 0.06228
295.00 0.07033
295.50 0.08479
296.00 0.09923
296.50 0.11364
297.00 0.12793
297.50 0.14212
298.00 0.16150
298.50 0.18495
299.00 0.21091
299.50 0.23675
300.00 0.26246
300.50 0.28594
301.00 0.30894
301.50 0.33180
302.00 0.35618
302.50 0.38517
303.00 0.40257
303.50 0.42004
304.00 0.43890
304.50 0.45758
305.00 0.47609
305.50 0.49443
306.00 0.50891
306.50 0.51800
307.00 0.52919
307.50 0.54258
308.00 0.55589
308.50 0.56913
309.00 0.57890
309.50 0.58601
310.00 0.59519
310.50 0.60700
311.00 0.61881
311.50 0.62917
312.00 0.63832
312.50 0.65006
313.00 0.66302
313.50 0.67601
314.00 0.68953
314.50 0.70423
315.00 0.71890
315.50 0.73486
316.00 0.75092
316.50 0.76752
317.00 0.78454
317.50 0.80208
318.00 0.82013
318.50 0.83823
319.00 0.85698
319.50 0.87582
320.00 0.89540
320.50 0.91531
321.00 0.93527
321.50 0.95546
322.00 0.97569
322.50 0.99532
323.00 1.01484
323.50 1.03558
324.00 1.05639
324.50 1.07288
325.00 1.08932
325.50 1.10704
326.00 1.12478
326.50 1.14255
327.00 1.15965
327.50 1.17331
328.00 1.18703
328.50 1.20233
329.00 1.21806
329.50 1.23384
330.00 1.24968
330.50 1.26475
331.00 1.27930
331.50 1.29543
332.00 1.31116
332.50 1.32645
333.00 1.34178
333.50 1.35716
334.00 1.37267
334.50 1.38831
335.00 1.40398
335.50 1.41495
336.00 1.42588
336.50 1.43683
337.00 1.44511
337.50 1.45095
338.00 1.45683
338.50 1.46148
339.00 1.46599
339.50 1.47054
340.00 1.47512
340.50 1.47627
341.00 1.47716
341.50 1.47797
342.00 1.48010
342.50 1.48274
343.00 1.48548
343.50 1.48830
344.00 1.49036
344.50 1.49243
345.00 1.49447
345.50 1.49609
346.00 1.49779
346.50 1.49958
347.00 1.50104
347.50 1.50254
348.00 1.50350
348.50 1.50285
349.00 1.50229
349.50 1.50181
350.00 1.50108
350.50 1.49899
351.00 1.49639
351.50 1.49407
352.00 1.49296
352.50 1.49197
353.00 1.49110
353.50 1.49034
354.00 1.48955
354.50 1.48888
355.00 1.48842
355.50 1.48828
356.00 1.48827
356.50 1.48856
357.00 1.48904
357.50 1.48964
358.00 1.49036
358.50 1.49086
359.00 1.49141
359.50 1.49208
360.00 1.49285
