phi[deg] B[T]
0.00 1.68871
0.50 1.68834
1.00 1.68811
1.50 1.68800
2.00 1.68802
2.50 1.68817
3.00 1.68846
3.50 1.68888
4.00 1.68942
4.50 1.69009
5.00 1.69085
5.50 1.69164
6.00 1.69256
6.50 1.69350
7.00 1.69425
7.50 1.69566
8.00 1.69720
8.50 1.69885
9.00 1.69914
9.50 1.69851
10.00 1.69799
10.50 1.69935
11.00 1.70087
11.50 1.70248
12.00 1.70207
12.50 1.70058
13.00 1.69917
13.50 1.69680
14.00 1.69450
14.50 1.69228
15.00 1.69026
15.50 1.68834
16.00 1.68651
16.50 1.68356
17.00 1.67998
17.50 1.67649
18.00 1.67287
18.50 1.66731
19.00 1.66182
19.50 1.65756
20.00 1.65351
20.50 1.64951
21.00 1.64314
21.50 1.63649
22.00 1.62989
22.50 1.62132
23.00 1.61136
23.50 1.60143
24.00 1.59122
24.50 1.58087
25.00 1.57056
25.50 1.55900
26.00 1.54343
26.50 1.52788
27.00 1.51237
27.50 1.49689
28.00 1.48203
28.50 1.46747
29.00 1.45152
29.50 1.43500
30.00 1.41853
30.50 1.40259
31.00 1.38717
31.50 1.37091
32.00 1.35431
32.50 1.33785
33.00 1.32144
33.50 1.30507
34.00 1.28591
34.50 1.26574
35.00 1.24786
35.50 1.22998
36.00 1.21211
36.50 1.19426
37.00 1.17575
37.50 1.15520
38.00 1.13467
38.50 1.11416
39.00 1.09366
39.50 1.07226
40.00 1.05200
40.50 1.03212
41.00 1.01225
41.50 0.99239
42.00 0.97143
42.50 0.95230
43.00 0.93317
43.50 0.91390
44.00 0.89412
44.50 0.87433
45.00 0.85441
45.50 0.83467
46.00 0.81528
46.50 0.79587
47.00 0.77646
47.50 0.75706
48.00 0.73744
48.50 0.71659
49.00 0.69687
49.50 0.67739
50.00 0.65786
50.50 0.63767
51.00 0.61648
51.50 0.59753
52.00 0.57850
52.50 0.55940
53.00 0.54151
53.50 0.52373
54.00 0.50423
54.50 0.48466
55.00 0.46501
55.50 0.44488
56.00 0.42462
56.50 0.40461
57.00 0.38465
57.50 0.36461
58.00 0.34450
58.50 0.32432
59.00 0.30461
59.50 0.28618
60.00 0.26737
60.50 0.24820
61.00 0.22898
61.50 0.20971
62.00 0.19039
62.50 0.17424
63.00 0.16104
63.50 0.14776
64.00 0.13447
64.50 0.12116
65.00 0.10883
65.50 0.10010
66.00 0.09134
66.50 0.08258
67.00 0.07450
67.50 0.06765
68.00 0.06080
68.50 0.05396
69.00 0.04900
69.50 0.04472
70.00 0.04044
70.50 0.03614
71.00 0.03230
71.50 0.02938
72.00 0.02646
72.50 0.02354
73.00 0.02146
73.50 0.01951
74.00 0.01755
74.50 0.01560
75.00 0.01422
75.50 0.01300
76.00 0.01178
76.50 0.01056
77.00 0.00952
77.50 0.00852
78.00 0.00752
78.50 0.00689
79.00 0.00637
79.50 0.00586
80.00 0.00535
80.50 0.00480
81.00 0.00426
81.50 0.00371
82.00 0.00345
82.50 0.00319
83.00 0.00293
83.50 0.00267
84.00 0.00241
84.50 0.00215
85.00 0.00200
85.50 0.00188
86.00 0.00176
86.50 0.00164
87.00 0.00153
87.50 0.00141
88.00 0.00137
88.50 0.00132
89.00 0.00127
89.50 0.00123
90.00 0.00118
90.00 0.00118
90.50 0.00123
91.00 0.00127
91.50 0.00132
92.00 0.00137
92.50 0.00141
93.00 0.00153
93.50 0.00164
94.00 0.00176
94.50 0.00188
95.00 0.00200
95.50 0.00215
96.00 0.00241
96.50 0.00267
97.00 0.00293
97.50 0.00319
98.00 0.00345
98.50 0.00371
99.00 0.00426
99.50 0.00480
100.00 0.00535
100.50 0.00586
101.00 0.00637
101.50 0.00689
102.00 0.00752
102.50 0.00852
103.00 0.00952
103.50 0.01056
104.00 0.01178
104.50 0.01300
105.00 0.01422
105.50 0.01560
106.00 0.01755
106.50 0.01951
107.00 0.02146
107.50 0.02354
108.00 0.02646
108.50 0.02938
109.00 0.03230
109.50 0.03614
110.00 0.04044
110.50 0.04472
111.00 0.04900
111.50 0.05396
112.00 0.06080
112.50 0.06765
113.00 0.07450
113.50 0.08258
114.00 0.09134
114.50 0.10010
115.00 0.10883
115.50 0.12116
116.00 0.13447
116.50 0.14776
117.00 0.16104
117.50 0.17424
118.00 0.19039
118.50 0.20971
119.00 0.22898
119.50 0.24820
120.00 0.26737
120.50 0.28618
121.00 0.30461
121.50 0.32432
122.00 0.34450
122.50 0.36461
123.00 0.38465
123.50 0.40461
124.00 0.42462
124.50 0.44488
125.00 0.46501
125.50 0.48466
126.00 0.50423
126.50 0.52373
127.00 0.54151
127.50 0.55940
128.00 0.57850
128.50 0.59753
129.00 0.61648
129.50 0.63767
130.00 0.65786
130.50 0.67739
131.00 0.69687
131.50 0.71659
132.00 0.73744
132.50 0.75706
133.00 0.77646
133.50 0.79587
134.00 0.81528
134.50 0.83467
135.00 0.85441
135.50 0.87433
136.00 0.89412
136.50 0.91390
137.00 0.93317
137.50 0.95230
138.00 0.97143
138.50 0.99239
139.00 1.01225
139.50 1.03212
140.00 1.05200
140.50 1.07226
141.00 1.09366
141.50 1.11416
142.00 1.13467
142.50 1.15520
143.00 1.17575
143.50 1.19426
144.00 1.21211
144.50 1.22998
145.00 1.24786
145.50 1.26574
146.00 1.28591
146.50 1.30507
147.00 1.32144
147.50 1.33785
148.00 1.35431
148.50 1.37091
149.00 1.38717
149.50 1.40259
150.00 1.41853
150.50 1.43500
151.00 1.45152
151.50 1.46747
152.00 1.48203
152.50 1.49689
153.00 1.51237
153.50 1.52788
154.00 1.54343
154.50 1.55900
155.00 1.57056
155.50 1.58087
156.00 1.59122
156.50 1.60143
157.00 1.61136
157.50 1.62132
158.00 1.62989
158.50 1.63649
159.00 1.64314
159.50 1.64951
160.00 1.65351
160.50 1.65756
161.00 1.66182
161.50 1.66731
162.00 1.67287
162.50 1.67649
163.00 1.67998
163.50 1.68356
164.00 1.68651
164.50 1.68834
165.00 1.69026
165.50 1.69228
166.00 1.69450
166.50 1.69680
167.00 1.69917
167.50 1.70058
168.00 1.70207
168.50 1.70248
169.00 1.70087
169.50 1.69935
170.00 1.69799
170.50 1.69851
171.00 1.69914
171.50 1.69885
172.00 1.69720
172.50 1.69566
173.00 1.69425
173.50 1.69350
174.00 1.69256
174.50 1.69164
175.00 1.69085
175.50 1.69009
176.00 1.68942
176.50 1.68888
177.00 1.68846
177.50 1.68817
178.00 1.68802
178.50 1.68800
179.00 1.68811
179.50 1.68834
180.00 1.68871
180.00 1.68871
180.50 1.68834
181.00 1.68811
181.50 1.68800
182.00 1.68802
182.50 1.68817
183.00 1.68846
183.50 1.68888
184.00 1.68942
184.50 1.69009
185.00 1.69085
185.50 1.69164
186.00 1.69256
186.50 1.69350
187.00 1.69425
187.50 1.69566
188.00 1.69720
188.50 1.69885
189.00 1.69914
189.50 1.69851
190.00 1.69799
190.50 1.69935
191.00 1.70087
191.50 1.70248
192.00 1.70207
192.50 1.70058
193.00 1.69917
193.50 1.69680
194.00 1.69450
194.50 1.69228
195.00 1.69026
195.50 1.68834
196.00 1.68651
196.50 1.68356
197.00 1.67998
197.50 1.67649
198.00 1.67287
198.50 1.66731
199.00 1.66182
199.50 1.65756
200.00 1.65351
200.50 1.64951
201.00 1.64314
201.50 1.63649
202.00 1.62989
202.50 1.62132
203.00 1.61136
203.50 1.60143
204.00 1.59122
204.50 1.58087
205.00 1.57056
205.50 1.55900
206.00 1.54343
206.50 1.52788
207.00 1.51237
207.50 1.49689
208.00 1.48203
208.50 1.46747
209.00 1.45152
209.50 1.43500
210.00 1.41853
210.50 1.40259
211.00 1.38717
211.50 1.37091
212.00 1.35431
212.50 1.33785
213.00 1.32144
213.50 1.30507
214.00 1.28591
214.50 1.26574
215.00 1.24786
215.50 1.22998
216.00 1.21211
216.50 1.19426
217.00 1.17575
217.50 1.15520
218.00 1.13467
218.50 1.11416
219.00 1.09366
219.50 1.07226
220.00 1.05200
220.50 1.03212
221.00 1.01225
221.50 0.99239
222.00 0.97143
222.50 0.95230
223.00 0.93317
223.50 0.91390
224.00 0.89412
224.50 0.87433
225.00 0.85441
225.50 0.83467
226.00 0.81528
226.50 0.79587
227.00 0.77646
227.50 0.75706
228.00 0.73744
228.50 0.71659
229.00 0.69687
229.50 0.67739
230.00 0.65786
230.50 0.63767
231.00 0.61648
231.50 0.59753
232.00 0.57850
232.50 0.55940
233.00 0.54151
233.50 0.52373
234.00 0.50423
234.50 0.48466
235.00 0.46501
235.50 0.44488
236.00 0.42462
236.50 0.40461
237.00 0.38465
237.50 0.36461
238.00 0.34450
238.50 0.32432
239.00 0.30461
239.50 0.28618
240.00 0.26737
240.50 0.24820
241.00 0.22898
241.50 0.20971
242.00 0.19039
242.50 0.17424
243.00 0.16104
243.50 0.14776
244.00 0.13447
244.50 0.12116
245.00 0.10883
245.50 0.10010
246.00 0.09134
246.50 0.08258
247.00 0.07450
247.50 0.06765
248.00 0.06080
248.50 0.05396
249.00 0.04900
249.50 0.04472
250.00 0.04044
250.50 0.03614
251.00 0.03230
251.50 0.02938
252.00 0.02646
252.50 0.02354
253.00 0.02146
253.50 0.01951
254.00 0.01755
254.50 0.01560
255.00 0.01422
255.50 0.01300
256.00 0.01178
256.50 0.01056
257.00 0.00952
257.50 0.00852
258.00 0.00752
258.50 0.00689
259.00 0.00637
259.50 0.00586
260.00 0.00535
260.50 0.00480
261.00 0.00426
261.50 0.00371
262.00 0.00345
262.50 0.00319
263.00 0.00293
263.50 0.00267
264.00 0.00241
264.50 0.00215
265.00 0.00200
265.50 0.00188
266.00 0.00176
266.50 0.00164
267.00 0.00153
267.50 0.00141
268.00 0.00137
268.50 0.00132
269.00 0.00127
269.50 0.00123
270.00 0.00118
270.00 0.00118
270.50 0.00123
271.00 0.00127
271.50 0.00132
272.00 0.00137
272.50 0.00141
273.00 0.00153
273.50 0.00164
274.00 0.00176
274.50 0.00188
275.00 0.00200
275.50 0.00215
276.00 0.00241
276.50 0.00267
277.00 0.00293
277.50 0.00319
278.00 0.00345
278.50 0.00371
279.00 0.00426
279.50 0.00480
280.00 0.00535
280.50 0.00586
281.00 0.00637
281.50 0.00689
282.00 0.00752
282.50 0.00852
283.00 0.00952
283.50 0.01056
284.00 0.01178
284.50 0.01300
285.00 0.01422
285.50 0.01560
286.00 0.01755
286.50 0.01951
287.00 0.02146
287.50 0.02354
288.00 0.02646
288.50 0.02938
289.00 0.03230
289.50 0.03614
290.00 0.04044
290.50 0.04472
291.00 0.04900
291.50 0.05396
292.00 0.06080
292.50 0.06765
293.00 0.07450
293.50 0.08258
294.00 0.09134
294.50 0.10010
295.00 0.10883
295.50 0.12116
296.00 0.13447
296.50 0.14776
297.00 0.16104
297.50 0.17424
298.00 0.19039
298.50 0.20971
299.00 0.22898
299.50 0.24820
300.00 0.26737
300.50 0.28618
301.00 0.30461
301.50 0.32432
302.00 0.34450
302.50 0.36461
303.00 0.38465
303.50 0.40461
304.00 0.42462
304.50 0.44488
305.00 0.46501
305.50 0.48466
306.00 0.50423
306.50 0.52373
307.00 0.54151
307.50 0.55940
308.00 0.57850
308.50 0.59753
309.00 0.61648
309.50 0.63767
310.00 0.65786
310.50 0.67739
311.00 0.69687
311.50 0.71659
312.00 0.73744
312.50 0.75706
313.00 0.77646
313.50 0.79587
314.00 0.81528
314.50 0.83467
315.00 0.85441
315.50 0.87433
316.00 0.89412
316.50 0.91390
317.00 0.93317
317.50 0.95230
318.00 0.97143
318.50 0.99239
319.00 1.01225
319.50 1.03212
320.00 1.05200
320.50 1.07226
321.00 1.09366
321.50 1.11416
322.00 1.13467
322.50 1.15520
323.00 1.17575
323.50 1.19426
324.00 1.21211
324.50 1.22998
325.00 1.24786
325.50 1.26574
326.00 1.28591
326.50 1.30507
327.00 1.32144
327.50 1.33785
328.00 1.35431
328.50 1.37091
329.00 1.38717
329.50 1.40259
330.00 1.41853
330.50 1.43500
331.00 1.45152
331.50 1.46747
332.00 1.48203
332.50 1.49689
333.00 1.51237
333.50 1.52788
334.00 1.54343
334.50 1.55900
335.00 1.57056
335.50 1.58087
336.00 1.59122
336.50 1.60143
337.00 1.61136
337.50 1.62132
338.00 1.62989
338.50 1.63649
339.00 1.64314
339.50 1.64951
340.00 1.65351
340.50 1.65756
341.00 1.66182
341.50 1.66731
342.00 1.67287
342.50 1.67649
343.00 1.67998
343.50 1.68356
344.00 1.68651
344.50 1.68834
345.00 1.69026
345.50 1.69228
346.00 1.69450
346.50 1.69680
347.00 1.69917
347.50 1.70058
348.00 1.70207
348.50 1.70248
349.00 1.70087
349.50 1.69935
350.00 1.69799
350.50 1.69851
351.00 1.69914
351.50 1.69885
352.00 1.69720
352.50 1.69566
353.00 1.69425
353.50 1.69350
354.00 1.69256
354.50 1.69164
355.00 1.69085
355.50 1.69009
356.00 1.68942
356.50 1.68888
357.00 1.68846
357.50 1.68817
358.00 1.68802
358.50 1.68800
359.00 1.68811
359.50 1.68834
360.00 1.68871
