phi[deg] B[T]
0.00 1.69473
0.50 1.69419
1.00 1.69376
1.50 1.69347
2.00 1.69330
2.50 1.69320
3.00 1.69315
3.50 1.69323
4.00 1.69343
4.50 1.69376
5.00 1.69433
5.50 1.69507
6.00 1.69595
6.50 1.69622
7.00 1.69661
7.50 1.69712
8.00 1.69816
8.50 1.69934
9.00 1.70063
9.50 1.70073
10.00 1.69975
10.50 1.69900
11.00 1.69992
11.50 1.70092
12.00 1.70057
12.50 1.69885
13.00 1.69628
13.50 1.69323
14.00 1.69027
14.50 1.68739
15.00 1.68459
15.50 1.68187
16.00 1.67915
16.50 1.67619
17.00 1.67363
17.50 1.66886
18.00 1.66388
18.50 1.65896
19.00 1.65412
19.50 1.64933
20.00 1.64461
20.50 1.64068
21.00 1.63836
21.50 1.63212
22.00 1.62361
22.50 1.61511
23.00 1.60629
23.50 1.59752
24.00 1.58878
24.50 1.57832
25.00 1.56592
25.50 1.55358
26.00 1.54074
26.50 1.52648
27.00 1.51228
27.50 1.49861
28.00 1.48498
28.50 1.47127
29.00 1.45725
29.50 1.44322
30.00 1.42717
30.50 1.41116
31.00 1.39518
31.50 1.37924
32.00 1.36383
32.50 1.35005
33.00 1.33630
33.50 1.31869
34.00 1.30018
34.50 1.28168
35.00 1.26319
35.50 1.24471
36.00 1.22602
36.50 1.20670
37.00 1.18738
37.50 1.16775
38.00 1.14684
38.50 1.12594
39.00 1.10503
39.50 1.08360
40.00 1.06309
40.50 1.04262
41.00 1.02200
41.50 1.00127
42.00 0.98121
42.50 0.96169
43.00 0.94164
43.50 0.92155
44.00 0.90152
44.50 0.88154
45.00 0.86151
45.50 0.84170
46.00 0.82198
46.50 0.80211
47.00 0.78181
47.50 0.76149
48.00 0.74131
48.50 0.72134
49.00 0.70114
49.50 0.68090
50.00 0.66151
50.50 0.64261
51.00 0.62194
51.50 0.60096
52.00 0.57993
52.50 0.56193
53.00 0.54387
53.50 0.52555
54.00 0.50698
54.50 0.48832
55.00 0.46928
55.50 0.44866
56.00 0.42795
56.50 0.40715
57.00 0.38583
57.50 0.36423
58.00 0.34255
58.50 0.32078
59.00 0.29893
59.50 0.27877
60.00 0.25928
60.50 0.23973
61.00 0.22013
61.50 0.20047
62.00 0.18529
62.50 0.17169
63.00 0.15805
63.50 0.14439
64.00 0.12995
64.50 0.11488
65.00 0.09980
65.50 0.08845
66.00 0.08082
66.50 0.07318
67.00 0.06636
67.50 0.05990
68.00 0.05345
68.50 0.04701
69.00 0.04124
69.50 0.03749
70.00 0.03373
70.50 0.02997
71.00 0.02677
71.50 0.02424
72.00 0.02170
72.50 0.01917
73.00 0.01721
73.50 0.01554
74.00 0.01387
74.50 0.01219
75.00 0.01108
75.50 0.01009
76.00 0.00910
76.50 0.00812
77.00 0.00717
77.50 0.00635
78.00 0.00554
78.50 0.00507
79.00 0.00465
79.50 0.00424
80.00 0.00384
80.50 0.00344
81.00 0.00304
81.50 0.00264
82.00 0.00239
82.50 0.00218
83.00 0.00198
83.50 0.00177
84.00 0.00161
84.50 0.00144
85.00 0.00128
85.50 0.00120
86.00 0.00112
86.50 0.00105
87.00 0.00097
87.50 0.00089
88.00 0.00085
88.50 0.00082
89.00 0.00079
89.50 0.00076
90.00 0.00072
90.00 0.00072
90.50 0.00076
91.00 0.00079
91.50 0.00082
92.00 0.00085
92.50 0.00089
93.00 0.00097
93.50 0.00105
94.00 0.00112
94.50 0.00120
95.00 0.00128
95.50 0.00144
96.00 0.00161
96.50 0.00177
97.00 0.00198
97.50 0.00218
98.00 0.00239
98.50 0.00264
99.00 0.00304
99.50 0.00344
100.00 0.00384
100.50 0.00424
101.00 0.00465
101.50 0.00507
102.00 0.00554
102.50 0.00635
103.00 0.00717
103.50 0.00812
104.00 0.00910
104.50 0.01009
105.00 0.01108
105.50 0.01219
106.00 0.01387
106.50 0.01554
107.00 0.01721
107.50 0.01917
108.00 0.02170
108.50 0.02424
109.00 0.02677
109.50 0.02997
110.00 0.03373
110.50 0.03749
111.00 0.04124
111.50 0.04701
112.00 0.05345
112.50 0.05990
113.00 0.06636
113.50 0.07318
114.00 0.08082
114.50 0.08845
115.00 0.09980
115.50 0.11488
116.00 0.12995
116.50 0.14439
117.00 0.15805
117.50 0.17169
118.00 0.18529
118.50 0.20047
119.00 0.22013
119.50 0.23973
120.00 0.25928
120.50 0.27877
121.00 0.29893
121.50 0.32078
122.00 0.34255
122.50 0.36423
123.00 0.38583
123.50 0.40715
124.00 0.42795
124.50 0.44866
125.00 0.46928
125.50 0.48832
126.00 0.50698
126.50 0.52555
127.00 0.54387
127.50 0.56193
128.00 0.57993
128.50 0.60096
129.00 0.62194
129.50 0.64261
130.00 0.66151
130.50 0.68090
131.00 0.70114
131.50 0.72134
132.00 0.74131
132.50 0.76149
133.00 0.78181
133.50 0.80211
134.00 0.82198
134.50 0.84170
135.00 0.86151
135.50 0.88154
136.00 0.90152
136.50 0.92155
137.00 0.94164
137.50 0.96169
138.00 0.98121
138.50 1.00127
139.00 1.02200
139.50 1.04262
140.00 1.06309
140.50 1.08360
141.00 1.10503
141.50 1.12594
142.00 1.14684
142.50 1.16775
143.00 1.18738
143.50 1.20670
144.00 1.22602
144.50 1.24471
145.00 1.26319
145.50 1.28168
146.00 1.30018
146.50 1.31869
147.00 1.33630
147.50 1.35005
148.00 1.36383
148.50 1.37924
149.00 1.39518
149.50 1.41116
150.00 1.42717
150.50 1.44322
151.00 1.45725
151.50 1.47127
152.00 1.48498
152.50 1.49861
153.00 1.51228
153.50 1.52648
154.00 1.54074
154.50 1.55358
155.00 1.56592
155.50 1.57832
156.00 1.58878
156.50 1.59752
157.00 1.60629
157.50 1.61511
158.00 1.62361
158.50 1.63212
159.00 1.63836
159.50 1.64068
160.00 1.64461
160.50 1.64933
161.00 1.65412
161.50 1.65896
162.00 1.66388
162.50 1.66886
163.00 1.67363
163.50 1.67619
164.00 1.67915
164.50 1.68187
165.00 1.68459
165.50 1.68739
166.00 1.69027
166.50 1.69323
167.00 1.69628
167.50 1.69885
168.00 1.70057
168.50 1.70092
169.00 1.69992
169.50 1.69900
170.00 1.69975
170.50 1.70073
171.00 1.70063
171.50 1.69934
172.00 1.69816
172.50 1.69712
173.00 1.69661
173.50 1.69622
174.00 1.69595
174.50 1.69507
175.00 1.69433
175.50 1.69376
176.00 1.69343
176.50 1.69323
177.00 1.69315
177.50 1.69320
178.00 1.69330
178.50 1.69347
179.00 1.69376
179.50 1.69419
180.00 1.69473
180.00 1.69473
180.50 1.69419
181.00 1.69376
181.50 1.69347
182.00 1.69330
182.50 1.69320
183.00 1.69315
183.50 1.69323
184.00 1.69343
184.50 1.69376
185.00 1.69433
185.50 1.69507
186.00 1.69595
186.50 1.69622
187.00 1.69661
187.50 1.69712
188.00 1.69816
188.50 1.69934
189.00 1.70063
189.50 1.70073
190.00 1.69975
190.50 1.69900
191.00 1.69992
191.50 1.70092
192.00 1.70057
192.50 1.69885
193.00 1.69628
193.50 1.69323
194.00 1.69027
194.50 1.68739
195.00 1.68459
195.50 1.68187
196.00 1.67915
196.50 1.67619
197.00 1.67363
197.50 1.66886
198.00 1.66388
198.50 1.65896
199.00 1.65412
199.50 1.64933
200.00 1.64461
200.50 1.64068
201.00 1.63836
201.50 1.63212
202.00 1.62361
202.50 1.61511
203.00 1.60629
203.50 1.59752
204.00 1.58878
204.50 1.57832
205.00 1.56592
205.50 1.55358
206.00 1.54074
206.50 1.52648
207.00 1.51228
207.50 1.49861
208.00 1.48498
208.50 1.47127
209.00 1.45725
209.50 1.44322
210.00 1.42717
210.50 1.41116
211.00 1.39518
211.50 1.37924
212.00 1.36383
212.50 1.35005
213.00 1.33630
213.50 1.31869
214.00 1.30018
214.50 1.28168
215.00 1.26319
215.50 1.24471
216.00 1.22602
216.50 1.20670
217.00 1.18738
217.50 1.16775
218.00 1.14684
218.50 1.12594
219.00 1.10503
219.50 1.08360
220.00 1.06309
220.50 1.04262
221.00 1.02200
221.50 1.00127
222.00 0.98121
222.50 0.96169
223.00 0.94164
223.50 0.92155
224.00 0.90152
224.50 0.88154
225.00 0.86151
225.50 0.84170
226.00 0.82198
226.50 0.80211
227.00 0.78181
227.50 0.76149
228.00 0.74131
228.50 0.72134
229.00 0.70114
229.50 0.68090
230.00 0.66151
230.50 0.64261
231.00 0.62194
231.50 0.60096
232.00 0.57993
232.50 0.56193
233.00 0.54387
233.50 0.52555
234.00 0.50698
234.50 0.48832
235.00 0.46928
235.50 0.44866
236.00 0.42795
236.50 0.40715
237.00 0.38583
237.50 0.36423
238.00 0.34255
238.50 0.32078
239.00 0.29893
239.50 0.27877
240.00 0.25928
240.50 0.23973
241.00 0.22013
241.50 0.20047
242.00 0.18529
242.50 0.17169
243.00 0.15805
243.50 0.14439
244.00 0.12995
244.50 0.11488
245.00 0.09980
245.50 0.08845
246.00 0.08082
246.50 0.07318
247.00 0.06636
247.50 0.05990
248.00 0.05345
248.50 0.04701
249.00 0.04124
249.50 0.03749
250.00 0.03373
250.50 0.02997
251.00 0.02677
251.50 0.02424
252.00 0.02170
252.50 0.01917
253.00 0.01721
253.50 0.01554
254.00 0.01387
254.50 0.01219
255.00 0.01108
255.50 0.01009
256.00 0.00910
256.50 0.00812
257.00 0.00717
257.50 0.00635
258.00 0.00554
258.50 0.00507
259.00 0.00465
259.50 0.00424
260.00 0.00384
260.50 0.00344
261.00 0.00304
261.50 0.00264
262.00 0.00239
262.50 0.00218
263.00 0.00198
263.50 0.00177
264.00 0.00161
264.50 0.00144
265.00 0.00128
265.50 0.00120
266.00 0.00112
266.50 0.00105
267.00 0.00097
267.50 0.00089
268.00 0.00085
268.50 0.00082
269.00 0.00079
269.50 0.00076
270.00 0.00072
270.00 0.00072
270.50 0.00076
271.00 0.00079
271.50 0.00082
272.00 0.00085
272.50 0.00089
273.00 0.00097
273.50 0.00105
274.00 0.00112
274.50 0.00120
275.00 0.00128
275.50 0.00144
276.00 0.00161
276.50 0.00177
277.00 0.00198
277.50 0.00218
278.00 0.00239
278.50 0.00264
279.00 0.00304
279.50 0.00344
280.00 0.00384
280.50 0.00424
281.00 0.00465
281.50 0.00507
282.00 0.00554
282.50 0.00635
283.00 0.00717
283.50 0.00812
284.00 0.00910
284.50 0.01009
285.00 0.01108
285.50 0.01219
286.00 0.01387
286.50 0.01554
287.00 0.01721
287.50 0.01917
288.00 0.02170
288.50 0.02424
289.00 0.02677
289.50 0.02997
290.00 0.03373
290.50 0.03749
291.00 0.04124
291.50 0.04701
292.00 0.05345
292.50 0.05990
293.00 0.06636
293.50 0.07318
294.00 0.08082
294.50 0.08845
295.00 0.09980
295.50 0.11488
296.00 0.12995
296.50 0.14439
297.00 0.15805
297.50 0.17169
298.00 0.18529
298.50 0.20047
299.00 0.22013
299.50 0.23973
300.00 0.25928
300.50 0.27877
301.00 0.29893
301.50 0.32078
302.00 0.34255
302.50 0.36423
303.00 0.38583
303.50 0.40715
304.00 0.42795
304.50 0.44866
305.00 0.46928
305.50 0.48832
306.00 0.50698
306.50 0.52555
307.00 0.54387
307.50 0.56193
308.00 0.57993
308.50 0.60096
309.00 0.62194
309.50 0.64261
310.00 0.66151
310.50 0.68090
311.00 0.70114
311.50 0.72134
312.00 0.74131
312.50 0.76149
313.00 0.78181
313.50 0.80211
314.00 0.82198
314.50 0.84170
315.00 0.86151
315.50 0.88154
316.00 0.90152
316.50 0.92155
317.00 0.94164
317.50 0.96169
318.00 0.98121
318.50 1.00127
319.00 1.02200
319.50 1.04262
320.00 1.06309
320.50 1.08360
321.00 1.10503
321.50 1.12594
322.00 1.14684
322.50 1.16775
323.00 1.18738
323.50 1.20670
324.00 1.22602
324.50 1.24471
325.00 1.26319
325.50 1.28168
326.00 1.30018
326.50 1.31869
327.00 1.33630
327.50 1.35005
328.00 1.36383
328.50 1.37924
329.00 1.39518
329.50 1.41116
330.00 1.42717
330.50 1.44322
331.00 1.45725
331.50 1.47127
332.00 1.48498
332.50 1.49861
333.00 1.51228
333.50 1.52648
334.00 1.54074
334.50 1.55358
335.00 1.56592
335.50 1.57832
336.00 1.58878
336.50 1.59752
337.00 1.60629
337.50 1.61511
338.00 1.62361
338.50 1.63212
339.00 1.63836
339.50 1.64068
340.00 1.64461
340.50 1.64933
341.00 1.65412
341.50 1.65896
342.00 1.66388
342.50 1.66886
343.00 1.67363
343.50 1.67619
344.00 1.67915
344.50 1.68187
345.00 1.68459
345.50 1.68739
346.00 1.69027
346.50 1.69323
347.00 1.69628
347.50 1.69885
348.00 1.70057
348.50 1.70092
349.00 1.69992
349.50 1.69900
350.00 1.69975
350.50 1.70073
351.00 1.70063
351.50 1.69934
352.00 1.69816
352.50 1.69712
353.00 1.69661
353.50 1.69622
354.00 1.69595
354.50 1.69507
355.00 1.69433
355.50 1.69376
356.00 1.69343
356.50 1.69323
357.00 1.69315
357.50 1.69320
358.00 1.69330
358.50 1.69347
359.00 1.69376
359.50 1.69419
360.00 1.69473
