phi[deg] B[T]
0.00 1.97272
0.50 1.97270
1.00 1.97283
1.50 1.97311
2.00 1.97355
2.50 1.97420
3.00 1.97446
3.50 1.97557
4.00 1.97682
4.50 1.97821
5.00 1.97974
5.50 1.98141
6.00 1.98339
6.50 1.98550
7.00 1.98775
7.50 1.98857
8.00 1.98936
8.50 1.99063
9.00 1.99249
9.50 1.99446
10.00 1.99657
10.50 1.99620
11.00 1.99509
11.50 1.99466
12.00 1.99466
12.50 1.99478
13.00 1.99500
13.50 1.99509
14.00 1.99380
14.50 1.99164
15.00 1.98700
15.50 1.98305
16.00 1.98087
16.50 1.97877
17.00 1.97674
17.50 1.97366
18.00 1.96722
18.50 1.96084
19.00 1.95479
19.50 1.95104
20.00 1.94733
20.50 1.94187
21.00 1.93367
21.50 1.92550
22.00 1.91619
22.50 1.90545
23.00 1.89473
23.50 1.88403
24.00 1.87025
24.50 1.85577
25.00 1.84132
25.50 1.82674
26.00 1.80952
26.50 1.79270
27.00 1.77602
27.50 1.75935
28.00 1.74175
28.50 1.72296
29.00 1.70402
29.50 1.68400
30.00 1.66400
30.50 1.64401
31.00 1.62219
31.50 1.59936
32.00 1.57866
32.50 1.55795
33.00 1.53724
33.50 1.51530
34.00 1.49176
34.50 1.46821
35.00 1.44385
35.50 1.41862
36.00 1.39339
36.50 1.36817
37.00 1.34267
37.50 1.31655
38.00 1.29102
38.50 1.26549
39.00 1.23996
39.50 1.21427
40.00 1.18845
40.50 1.16367
41.00 1.13889
41.50 1.11411
42.00 1.08900
42.50 1.06491
43.00 1.04150
43.50 1.01819
44.00 0.99515
44.50 0.97212
45.00 0.94886
45.50 0.92655
46.00 0.90476
46.50 0.88295
47.00 0.86193
47.50 0.84157
48.00 0.82011
48.50 0.79783
49.00 0.77772
49.50 0.75792
50.00 0.73776
50.50 0.71640
51.00 0.69722
51.50 0.67797
52.00 0.65868
52.50 0.63922
53.00 0.61678
53.50 0.59608
54.00 0.57613
54.50 0.55610
55.00 0.53601
55.50 0.51563
56.00 0.49332
56.50 0.47310
57.00 0.45279
57.50 0.43240
58.00 0.41198
58.50 0.39236
59.00 0.37265
59.50 0.35091
60.00 0.32909
60.50 0.30721
61.00 0.28527
61.50 0.26376
62.00 0.24775
62.50 0.23192
63.00 0.21603
63.50 0.20009
64.00 0.18410
64.50 0.16732
65.00 0.15630
65.50 0.14550
66.00 0.13468
66.50 0.12381
67.00 0.11282
67.50 0.10182
68.00 0.09307
68.50 0.08700
69.00 0.08094
69.50 0.07486
70.00 0.06868
70.50 0.06248
71.00 0.05629
71.50 0.05046
72.00 0.04686
72.50 0.04349
73.00 0.04013
73.50 0.03677
74.00 0.03341
74.50 0.03006
75.00 0.02766
75.50 0.02580
76.00 0.02395
76.50 0.02209
77.00 0.02024
77.50 0.01832
78.00 0.01640
78.50 0.01516
79.00 0.01417
79.50 0.01318
80.00 0.01219
80.50 0.01120
81.00 0.01021
81.50 0.00924
82.00 0.00855
82.50 0.00798
83.00 0.00744
83.50 0.00691
84.00 0.00637
84.50 0.00589
85.00 0.00561
85.50 0.00532
86.00 0.00504
86.50 0.00475
87.00 0.00445
87.50 0.00435
88.00 0.00423
88.50 0.00411
89.00 0.00399
89.50 0.00387
90.00 0.00376
90.00 0.00376
90.50 0.00387
91.00 0.00399
91.50 0.00411
92.00 0.00423
92.50 0.00435
93.00 0.00445
93.50 0.00475
94.00 0.00504
94.50 0.00532
95.00 0.00561
95.50 0.00589
96.00 0.00637
96.50 0.00691
97.00 0.00744
97.50 0.00798
98.00 0.00855
98.50 0.00924
99.00 0.01021
99.50 0.01120
100.00 0.01219
100.50 0.01318
101.00 0.01417
101.50 0.01516
102.00 0.01640
102.50 0.01832
103.00 0.02024
103.50 0.02209
104.00 0.02395
104.50 0.02580
105.00 0.02766
105.50 0.03006
106.00 0.03341
106.50 0.03677
107.00 0.04013
107.50 0.04349
108.00 0.04686
108.50 0.05046
109.00 0.05629
109.50 0.06248
110.00 0.06868
110.50 0.07486
111.00 0.08094
111.50 0.08700
112.00 0.09307
112.50 0.10182
113.00 0.11282
113.50 0.12381
114.00 0.13468
114.50 0.14550
115.00 0.15630
115.50 0.16732
116.00 0.18410
116.50 0.20009
117.00 0.21603
117.50 0.23192
118.00 0.24775
118.50 0.26376
119.00 0.28527
119.50 0.30721
120.00 0.32909
120.50 0.35091
121.00 0.37265
121.50 0.39236
122.00 0.41198
122.50 0.43240
123.00 0.45279
123.50 0.47310
124.00 0.49332
124.50 0.51563
125.00 0.53601
125.50 0.55610
126.00 0.57613
126.50 0.59608
127.00 0.61678
127.50 0.63922
128.00 0.65868
128.50 0.67797
129.00 0.69722
129.50 0.71640
130.00 0.73776
130.50 0.75792
131.00 0.77772
131.50 0.79783
132.00 0.82011
132.50 0.84157
133.00 0.86193
133.50 0.88295
134.00 0.90476
134.50 0.92655
135.00 0.94886
135.50 0.97212
136.00 0.99515
136.50 1.01819
137.00 1.04150
137.50 1.06491
138.00 1.08900
138.50 1.11411
139.00 1.13889
139.50 1.16367
140.00 1.18845
140.50 1.21427
141.00 1.23996
141.50 1.26549
142.00 1.29102
142.50 1.31655
143.00 1.34267
143.50 1.36817
144.00 1.39339
144.50 1.41862
145.00 1.44385
145.50 1.46821
146.00 1.49176
146.50 1.51530
147.00 1.53724
147.50 1.55795
148.00 1.57866
148.50 1.59936
149.00 1.62219
149.50 1.64401
150.00 1.66400
150.50 1.68400
151.00 1.70402
151.50 1.72296
152.00 1.74175
152.50 1.75935
153.00 1.77602
153.50 1.79270
154.00 1.80952
154.50 1.82674
155.00 1.84132
155.50 1.85577
156.00 1.87025
156.50 1.88403
157.00 1.89473
157.50 1.90545
158.00 1.91619
158.50 1.92550
159.00 1.93367
159.50 1.94187
160.00 1.94733
160.50 1.95104
161.00 1.95479
161.50 1.96084
162.00 1.96722
162.50 1.97366
163.00 1.97674
163.50 1.97877
164.00 1.98087
164.50 1.98305
165.00 1.98700
165.50 1.99164
166.00 1.99380
166.50 1.99509
167.00 1.99500
167.50 1.99478
168.00 1.99466
168.50 1.99466
169.00 1.99509
169.50 1.99620
170.00 1.99657
170.50 1.99446
171.00 1.99249
171.50 1.99063
172.00 1.98936
172.50 1.98857
173.00 1.98775
173.50 1.98550
174.00 1.98339
174.50 1.98141
175.00 1.97974
175.50 1.97821
176.00 1.97682
176.50 1.97557
177.00 1.97446
177.50 1.97420
178.00 1.97355
178.50 1.97311
179.00 1.97283
179.50 1.97270
180.00 1.97272
180.00 1.97272
180.50 1.97270
181.00 1.97283
181.50 1.97311
182.00 1.97355
182.50 1.97420
183.00 1.97446
183.50 1.97557
184.00 1.97682
184.50 1.97821
185.00 1.97974
185.50 1.98141
186.00 1.98339
186.50 1.98550
187.00 1.98775
187.50 1.98857
188.00 1.98936
188.50 1.99063
189.00 1.99249
189.50 1.99446
190.00 1.99657
190.50 1.99620
191.00 1.99509
191.50 1.99466
192.00 1.99466
192.50 1.99478
193.00 1.99500
193.50 1.99509
194.00 1.99380
194.50 1.99164
195.00 1.98700
195.50 1.98305
196.00 1.98087
196.50 1.97877
197.00 1.97674
197.50 1.97366
198.00 1.96722
198.50 1.96084
199.00 1.95479
199.50 1.95104
200.00 1.94733
200.50 1.94187
201.00 1.93367
201.50 1.92550
202.00 1.91619
202.50 1.90545
203.00 1.89473
203.50 1.88403
204.00 1.87025
204.50 1.85577
205.00 1.84132
205.50 1.82674
206.00 1.80952
206.50 1.79270
207.00 1.77602
207.50 1.75935
208.00 1.74175
208.50 1.72296
209.00 1.70402
209.50 1.68400
210.00 1.66400
210.50 1.64401
211.00 1.62219
211.50 1.59936
212.00 1.57866
212.50 1.55795
213.00 1.53724
213.50 1.51530
214.00 1.49176
214.50 1.46821
215.00 1.44385
215.50 1.41862
216.00 1.39339
216.50 1.36817
217.00 1.34267
217.50 1.31655
218.00 1.29102
218.50 1.26549
219.00 1.23996
219.50 1.21427
220.00 1.18845
220.50 1.16367
221.00 1.13889
221.50 1.11411
222.00 1.08900
222.50 1.06491
223.00 1.04150
223.50 1.01819
224.00 0.99515
224.50 0.97212
225.00 0.94886
225.50 0.92655
226.00 0.90476
226.50 0.88295
227.00 0.86193
227.50 0.84157
228.00 0.82011
228.50 0.79783
229.00 0.77772
229.50 0.75792
230.00 0.73776
230.50 0.71640
231.00 0.69722
231.50 0.67797
232.00 0.65868
232.50 0.63922
233.00 0.61678
233.50 0.59608
234.00 0.57613
234.50 0.55610
235.00 0.53601
235.50 0.51563
236.00 0.49332
236.50 0.47310
237.00 0.45279
237.50 0.43240
238.00 0.41198
238.50 0.39236
239.00 0.37265
239.50 0.35091
240.00 0.32909
240.50 0.30721
241.00 0.28527
241.50 0.26376
242.00 0.24775
242.50 0.23192
243.00 0.21603
243.50 0.20009
244.00 0.18410
244.50 0.16732
245.00 0.15630
245.50 0.14550
246.00 0.13468
246.50 0.12381
247.00 0.11282
247.50 0.10182
248.00 0.09307
248.50 0.08700
249.00 0.08094
249.50 0.07486
250.00 0.06868
250.50 0.06248
251.00 0.05629
251.50 0.05046
252.00 0.04686
252.50 0.04349
253.00 0.04013
253.50 0.03677
254.00 0.03341
254.50 0.03006
255.00 0.02766
255.50 0.02580
256.00 0.02395
256.50 0.02209
257.00 0.02024
257.50 0.01832
258.00 0.01640
258.50 0.01516
259.00 0.01417
259.50 0.01318
260.00 0.01219
260.50 0.01120
261.00 0.01021
261.50 0.00924
262.00 0.00855
262.50 0.00798
263.00 0.00744
263.50 0.00691
264.00 0.00637
264.50 0.00589
265.00 0.00561
265.50 0.00532
266.00 0.00504
266.50 0.00475
267.00 0.00445
267.50 0.00435
268.00 0.00423
268.50 0.00411
269.00 0.00399
269.50 0.00387
270.00 0.00376
270.00 0.00376
270.50 0.00387
271.00 0.00399
271.50 0.00411
272.00 0.00423
272.50 0.00435
273.00 0.00445
273.50 0.00475
274.00 0.00504
274.50 0.00532
275.00 0.00561
275.50 0.00589
276.00 0.00637
276.50 0.00691
277.00 0.00744
277.50 0.00798
278.00 0.00855
278.50 0.00924
279.00 0.01021
279.50 0.01120
280.00 0.01219
280.50 0.01318
281.00 0.01417
281.50 0.01516
282.00 0.01640
282.50 0.01832
283.00 0.02024
283.50 0.02209
284.00 0.02395
284.50 0.02580
285.00 0.02766
285.50 0.03006
286.00 0.03341
286.50 0.03677
287.00 0.04013
287.50 0.04349
288.00 0.04686
288.50 0.05046
289.00 0.05629
289.50 0.06248
290.00 0.06868
290.50 0.07486
291.00 0.08094
291.50 0.08700
292.00 0.09307
292.50 0.10182
293.00 0.11282
293.50 0.12381
294.00 0.13468
294.50 0.14550
295.00 0.15630
295.50 0.16732
296.00 0.18410
296.50 0.20009
297.00 0.21603
297.50 0.23192
298.00 0.24775
298.50 0.26376
299.00 0.28527
299.50 0.30721
300.00 0.32909
300.50 0.35091
301.00 0.37265
301.50 0.39236
302.00 0.41198
302.50 0.43240
303.00 0.45279
303.50 0.47310
304.00 0.49332
304.50 0.51563
305.00 0.53601
305.50 0.55610
306.00 0.57613
306.50 0.59608
307.00 0.61678
307.50 0.63922
308.00 0.65868
308.50 0.67797
309.00 0.69722
309.50 0.71640
310.00 0.73776
310.50 0.75792
311.00 0.77772
311.50 0.79783
312.00 0.82011
312.50 0.84157
313.00 0.86193
313.50 0.88295
314.00 0.90476
314.50 0.92655
315.00 0.94886
315.50 0.97212
316.00 0.99515
316.50 1.01819
317.00 1.04150
317.50 1.06491
318.00 1.08900
318.50 1.11411
319.00 1.13889
319.50 1.16367
320.00 1.18845
320.50 1.21427
321.00 1.23996
321.50 1.26549
322.00 1.29102
322.50 1.31655
323.00 1.34267
323.50 1.36817
324.00 1.39339
324.50 1.41862
325.00 1.44385
325.50 1.46821
326.00 1.49176
326.50 1.51530
327.00 1.53724
327.50 1.55795
328.00 1.57866
328.50 1.59936
329.00 1.62219
329.50 1.64401
330.00 1.66400
330.50 1.68400
331.00 1.70402
331.50 1.72296
332.00 1.74175
332.50 1.75935
333.00 1.77602
333.50 1.79270
334.00 1.80952
334.50 1.82674
335.00 1.84132
335.50 1.85577
336.00 1.87025
336.50 1.88403
337.00 1.89473
337.50 1.90545
338.00 1.91619
338.50 1.92550
339.00 1.93367
339.50 1.94187
340.00 1.94733
340.50 1.95104
341.00 1.95479
341.50 1.96084
342.00 1.96722
342.50 1.97366
343.00 1.97674
343.50 1.97877
344.00 1.98087
344.50 1.98305
345.00 1.98700
345.50 1.99164
346.00 1.99380
346.50 1.99509
347.00 1.99500
347.50 1.99478
348.00 1.99466
348.50 1.99466
349.00 1.99509
349.50 1.99620
350.00 1.99657
350.50 1.99446
351.00 1.99249
351.50 1.99063
352.00 1.98936
352.50 1.98857
353.00 1.98775
353.50 1.98550
354.00 1.98339
354.50 1.98141
355.00 1.97974
355.50 1.97821
356.00 1.97682
356.50 1.97557
357.00 1.97446
357.50 1.97420
358.00 1.97355
358.50 1.97311
359.00 1.97283
359.50 1.97270
360.00 1.97272
