phi[deg] B[T]
0.00 1.96968
0.50 1.96966
1.00 1.96979
1.50 1.97007
2.00 1.97051
2.50 1.97116
3.00 1.97144
3.50 1.97256
4.00 1.97382
4.50 1.97522
5.00 1.97676
5.50 1.97844
6.00 1.98043
6.50 1.98256
7.00 1.98483
7.50 1.98568
8.00 1.98652
8.50 1.98784
9.00 1.98974
9.50 1.99176
10.00 1.99392
10.50 1.99363
11.00 1.99260
11.50 1.99228
12.00 1.99240
12.50 1.99263
13.00 1.99297
13.50 1.99318
14.00 1.99200
14.50 1.98997
15.00 1.98548
15.50 1.98168
16.00 1.97968
16.50 1.97774
17.00 1.97589
17.50 1.97297
18.00 1.96669
18.50 1.96046
19.00 1.95455
19.50 1.95099
20.00 1.94746
20.50 1.94216
21.00 1.93411
21.50 1.92609
22.00 1.91692
22.50 1.90631
23.00 1.89571
23.50 1.88513
24.00 1.87144
24.50 1.85704
25.00 1.84267
25.50 1.82818
26.00 1.81103
26.50 1.79426
27.00 1.77762
27.50 1.76101
28.00 1.74345
28.50 1.72470
29.00 1.70579
29.50 1.68578
30.00 1.66579
30.50 1.64581
31.00 1.62399
31.50 1.60118
32.00 1.58046
32.50 1.55975
33.00 1.53903
33.50 1.51708
34.00 1.49354
34.50 1.46998
35.00 1.44561
35.50 1.42036
36.00 1.39511
36.50 1.36986
37.00 1.34435
37.50 1.31821
38.00 1.29266
38.50 1.26710
39.00 1.24156
39.50 1.21584
40.00 1.19000
40.50 1.16519
41.00 1.14039
41.50 1.11558
42.00 1.09045
42.50 1.06633
43.00 1.04289
43.50 1.01955
44.00 0.99649
44.50 0.97343
45.00 0.95014
45.50 0.92780
46.00 0.90599
46.50 0.88415
47.00 0.86310
47.50 0.84271
48.00 0.82122
48.50 0.79892
49.00 0.77878
49.50 0.75895
50.00 0.73876
50.50 0.71737
51.00 0.69816
51.50 0.67888
52.00 0.65956
52.50 0.64007
53.00 0.61761
53.50 0.59688
54.00 0.57689
54.50 0.55684
55.00 0.53671
55.50 0.51630
56.00 0.49397
56.50 0.47371
57.00 0.45338
57.50 0.43296
58.00 0.41252
58.50 0.39286
59.00 0.37313
59.50 0.35136
60.00 0.32952
60.50 0.30761
61.00 0.28564
61.50 0.26409
62.00 0.24807
62.50 0.23221
63.00 0.21630
63.50 0.20034
64.00 0.18433
64.50 0.16753
65.00 0.15650
65.50 0.14568
66.00 0.13485
66.50 0.12397
67.00 0.11297
67.50 0.10195
68.00 0.09319
68.50 0.08712
69.00 0.08104
69.50 0.07496
70.00 0.06877
70.50 0.06256
71.00 0.05636
71.50 0.05053
72.00 0.04692
72.50 0.04355
73.00 0.04018
73.50 0.03682
74.00 0.03346
74.50 0.03010
75.00 0.02770
75.50 0.02584
76.00 0.02398
76.50 0.02213
77.00 0.02027
77.50 0.01835
78.00 0.01643
78.50 0.01518
79.00 0.01419
79.50 0.01320
80.00 0.01221
80.50 0.01122
81.00 0.01022
81.50 0.00926
82.00 0.00857
82.50 0.00799
83.00 0.00746
83.50 0.00692
84.00 0.00638
84.50 0.00591
85.00 0.00562
85.50 0.00534
86.00 0.00505
86.50 0.00476
87.00 0.00446
87.50 0.00436
88.00 0.00425
88.50 0.00413
89.00 0.00401
89.50 0.00389
90.00 0.00377
90.00 0.00377
90.50 0.00389
91.00 0.00401
91.50 0.00413
92.00 0.00425
92.50 0.00436
93.00 0.00446
93.50 0.00476
94.00 0.00505
94.50 0.00534
95.00 0.00562
95.50 0.00591
96.00 0.00638
96.50 0.00692
97.00 0.00746
97.50 0.00799
98.00 0.00857
98.50 0.00926
99.00 0.01022
99.50 0.01122
100.00 0.01221
100.50 0.01320
101.00 0.01419
101.50 0.01518
102.00 0.01643
102.50 0.01835
103.00 0.02027
103.50 0.02213
104.00 0.02398
104.50 0.02584
105.00 0.02770
105.50 0.03010
106.00 0.03346
106.50 0.03682
107.00 0.04018
107.50 0.04355
108.00 0.04692
108.50 0.05053
109.00 0.05636
109.50 0.06256
110.00 0.06877
110.50 0.07496
111.00 0.08104
111.50 0.08712
112.00 0.09319
112.50 0.10195
113.00 0.11297
113.50 0.12397
114.00 0.13485
114.50 0.14568
115.00 0.15650
115.50 0.16753
116.00 0.18433
116.50 0.20034
117.00 0.21630
117.50 0.23221
118.00 0.24807
118.50 0.26409
119.00 0.28564
119.50 0.30761
120.00 0.32952
120.50 0.35136
121.00 0.37313
121.50 0.39286
122.00 0.41252
122.50 0.43296
123.00 0.45338
123.50 0.47371
124.00 0.49397
124.50 0.51630
125.00 0.53671
125.50 0.55684
126.00 0.57689
126.50 0.59688
127.00 0.61761
127.50 0.64007
128.00 0.65956
128.50 0.67888
129.00 0.69816
129.50 0.71737
130.00 0.73876
130.50 0.75895
131.00 0.77878
131.50 0.79892
132.00 0.82122
132.50 0.84271
133.00 0.86310
133.50 0.88415
134.00 0.90599
134.50 0.92780
135.00 0.95014
135.50 0.97343
136.00 0.99649
136.50 1.01955
137.00 1.04289
137.50 1.06633
138.00 1.09045
138.50 1.11558
139.00 1.14039
139.50 1.16519
140.00 1.19000
140.50 1.21584
141.00 1.24156
141.50 1.26710
142.00 1.29266
142.50 1.31821
143.00 1.34435
143.50 1.36986
144.00 1.39511
144.50 1.42036
145.00 1.44561
145.50 1.46998
146.00 1.49354
146.50 1.51708
147.00 1.53903
147.50 1.55975
148.00 1.58046
148.50 1.60118
149.00 1.62399
149.50 1.64581
150.00 1.66579
150.50 1.68578
151.00 1.70579
151.50 1.72470
152.00 1.74345
152.50 1.76101
153.00 1.77762
153.50 1.79426
154.00 1.81103
154.50 1.82818
155.00 1.84267
155.50 1.85704
156.00 1.87144
156.50 1.88513
157.00 1.89571
157.50 1.90631
158.00 1.91692
158.50 1.92609
159.00 1.93411
159.50 1.94216
160.00 1.94746
160.50 1.95099
161.00 1.95455
161.50 1.96046
162.00 1.96669
162.50 1.97297
163.00 1.97589
163.50 1.97774
164.00 1.97968
164.50 1.98168
165.00 1.98548
165.50 1.98997
166.00 1.99200
166.50 1.99318
167.00 1.99297
167.50 1.99263
168.00 1.99240
168.50 1.99228
169.00 1.99260
169.50 1.99363
170.00 1.99392
170.50 1.99176
171.00 1.98974
171.50 1.98784
172.00 1.98652
172.50 1.98568
173.00 1.98483
173.50 1.98256
174.00 1.98043
174.50 1.97844
175.00 1.97676
175.50 1.97522
176.00 1.97382
176.50 1.97256
177.00 1.97144
177.50 1.97116
178.00 1.97051
178.50 1.97007
179.00 1.96979
179.50 1.96966
180.00 1.96968
180.00 1.96968
180.50 1.96966
181.00 1.96979
181.50 1.97007
182.00 1.97051
182.50 1.97116
183.00 1.97144
183.50 1.97256
184.00 1.97382
184.50 1.97522
185.00 1.97676
185.50 1.97844
186.00 1.98043
186.50 1.98256
187.00 1.98483
187.50 1.98568
188.00 1.98652
188.50 1.98784
189.00 1.98974
189.50 1.99176
190.00 1.99392
190.50 1.99363
191.00 1.99260
191.50 1.99228
192.00 1.99240
192.50 1.99263
193.00 1.99297
193.50 1.99318
194.00 1.99200
194.50 1.98997
195.00 1.98548
195.50 1.98168
196.00 1.97968
196.50 1.97774
197.00 1.97589
197.50 1.97297
198.00 1.96669
198.50 1.96046
199.00 1.95455
199.50 1.95099
200.00 1.94746
200.50 1.94216
201.00 1.93411
201.50 1.92609
202.00 1.91692
202.50 1.90631
203.00 1.89571
203.50 1.88513
204.00 1.87144
204.50 1.85704
205.00 1.84267
205.50 1.82818
206.00 1.81103
206.50 1.79426
207.00 1.77762
207.50 1.76101
208.00 1.74345
208.50 1.72470
209.00 1.70579
209.50 1.68578
210.00 1.66579
210.50 1.64581
211.00 1.62399
211.50 1.60118
212.00 1.58046
212.50 1.55975
213.00 1.53903
213.50 1.51708
214.00 1.49354
214.50 1.46998
215.00 1.44561
215.50 1.42036
216.00 1.39511
216.50 1.36986
217.00 1.34435
217.50 1.31821
218.00 1.29266
218.50 1.26710
219.00 1.24156
219.50 1.21584
220.00 1.19000
220.50 1.16519
221.00 1.14039
221.50 1.11558
222.00 1.09045
222.50 1.06633
223.00 1.04289
223.50 1.01955
224.00 0.99649
224.50 0.97343
225.00 0.95014
225.50 0.92780
226.00 0.90599
226.50 0.88415
227.00 0.86310
227.50 0.84271
228.00 0.82122
228.50 0.79892
229.00 0.77878
229.50 0.75895
230.00 0.73876
230.50 0.71737
231.00 0.69816
231.50 0.67888
232.00 0.65956
232.50 0.64007
233.00 0.61761
233.50 0.59688
234.00 0.57689
234.50 0.55684
235.00 0.53671
235.50 0.51630
236.00 0.49397
236.50 0.47371
237.00 0.45338
237.50 0.43296
238.00 0.41252
238.50 0.39286
239.00 0.37313
239.50 0.35136
240.00 0.32952
240.50 0.30761
241.00 0.28564
241.50 0.26409
242.00 0.24807
242.50 0.23221
243.00 0.21630
243.50 0.20034
244.00 0.18433
244.50 0.16753
245.00 0.15650
245.50 0.14568
246.00 0.13485
246.50 0.12397
247.00 0.11297
247.50 0.10195
248.00 0.09319
248.50 0.08712
249.00 0.08104
249.50 0.07496
250.00 0.06877
250.50 0.06256
251.00 0.05636
251.50 0.05053
252.00 0.04692
252.50 0.04355
253.00 0.04018
253.50 0.03682
254.00 0.03346
254.50 0.03010
255.00 0.02770
255.50 0.02584
256.00 0.02398
256.50 0.02213
257.00 0.02027
257.50 0.01835
258.00 0.01643
258.50 0.01518
259.00 0.01419
259.50 0.01320
260.00 0.01221
260.50 0.01122
261.00 0.01022
261.50 0.00926
262.00 0.00857
262.50 0.00799
263.00 0.00746
263.50 0.00692
264.00 0.00638
264.50 0.00591
265.00 0.00562
265.50 0.00534
266.00 0.00505
266.50 0.00476
267.00 0.00446
267.50 0.00436
268.00 0.00425
268.50 0.00413
269.00 0.00401
269.50 0.00389
270.00 0.00377
270.00 0.00377
270.50 0.00389
271.00 0.00401
271.50 0.00413
272.00 0.00425
272.50 0.00436
273.00 0.00446
273.50 0.00476
274.00 0.00505
274.50 0.00534
275.00 0.00562
275.50 0.00591
276.00 0.00638
276.50 0.00692
277.00 0.00746
277.50 0.00799
278.00 0.00857
278.50 0.00926
279.00 0.01022
279.50 0.01122
280.00 0.01221
280.50 0.01320
281.00 0.01419
281.50 0.01518
282.00 0.01643
282.50 0.01835
283.00 0.02027
283.50 0.02213
284.00 0.02398
284.50 0.02584
285.00 0.02770
285.50 0.03010
286.00 0.03346
286.50 0.03682
287.00 0.04018
287.50 0.04355
288.00 0.04692
288.50 0.05053
289.00 0.05636
289.50 0.06256
290.00 0.06877
290.50 0.07496
291.00 0.08104
291.50 0.08712
292.00 0.09319
292.50 0.10195
293.00 0.11297
293.50 0.12397
294.00 0.13485
294.50 0.14568
295.00 0.15650
295.50 0.16753
296.00 0.18433
296.50 0.20034
297.00 0.21630
297.50 0.23221
298.00 0.24807
298.50 0.26409
299.00 0.28564
299.50 0.30761
300.00 0.32952
300.50 0.35136
301.00 0.37313
301.50 0.39286
302.00 0.41252
302.50 0.43296
303.00 0.45338
303.50 0.47371
304.00 0.49397
304.50 0.51630
305.00 0.53671
305.50 0.55684
306.00 0.57689
306.50 0.59688
307.00 0.61761
307.50 0.64007
308.00 0.65956
308.50 0.67888
309.00 0.69816
309.50 0.71737
310.00 0.73876
310.50 0.75895
311.00 0.77878
311.50 0.79892
312.00 0.82122
312.50 0.84271
313.00 0.86310
313.50 0.88415
314.00 0.90599
314.50 0.92780
315.00 0.95014
315.50 0.97343
316.00 0.99649
316.50 1.01955
317.00 1.04289
317.50 1.06633
318.00 1.09045
318.50 1.11558
319.00 1.14039
319.50 1.16519
320.00 1.19000
320.50 1.21584
321.00 1.24156
321.50 1.26710
322.00 1.29266
322.50 1.31821
323.00 1.34435
323.50 1.36986
324.00 1.39511
324.50 1.42036
325.00 1.44561
325.50 1.46998
326.00 1.49354
326.50 1.51708
327.00 1.53903
327.50 1.55975
328.00 1.58046
328.50 1.60118
329.00 1.62399
329.50 1.64581
330.00 1.66579
330.50 1.68578
331.00 1.70579
331.50 1.72470
332.00 1.74345
332.50 1.76101
333.00 1.77762
333.50 1.79426
334.00 1.81103
334.50 1.82818
335.00 1.84267
335.50 1.85704
336.00 1.87144
336.50 1.88513
337.00 1.89571
337.50 1.90631
338.00 1.91692
338.50 1.92609
339.00 1.93411
339.50 1.94216
340.00 1.94746
340.50 1.95099
341.00 1.95455
341.50 1.96046
342.00 1.96669
342.50 1.97297
343.00 1.97589
343.50 1.97774
344.00 1.97968
344.50 1.98168
345.00 1.98548
345.50 1.98997
346.00 1.99200
346.50 1.99318
347.00 1.99297
347.50 1.99263
348.00 1.99240
348.50 1.99228
349.00 1.99260
349.50 1.99363
350.00 1.99392
350.50 1.99176
351.00 1.98974
351.50 1.98784
352.00 1.98652
352.50 1.98568
353.00 1.98483
353.50 1.98256
354.00 1.98043
354.50 1.97844
355.00 1.97676
355.50 1.97522
356.00 1.97382
356.50 1.97256
357.00 1.97144
357.50 1.97116
358.00 1.97051
358.50 1.97007
359.00 1.96979
359.50 1.96966
360.00 1.96968
