phi[deg] B[T]
0.00 1.05018
0.50 1.04960
1.00 1.04908
1.50 1.04863
2.00 1.04824
2.50 1.04785
3.00 1.04706
3.50 1.04640
4.00 1.04580
4.50 1.04526
5.00 1.04458
5.50 1.04293
6.00 1.04134
6.50 1.03982
7.00 1.03866
7.50 1.03756
8.00 1.03620
8.50 1.03435
9.00 1.03227
9.50 1.02976
10.00 1.02731
10.50 1.02491
11.00 1.02257
11.50 1.02033
12.00 1.01827
12.50 1.01626
13.00 1.01334
13.50 1.01041
14.00 1.00685
14.50 1.00315
15.00 0.99949
15.50 0.99589
16.00 0.99234
16.50 0.98884
17.00 0.98572
17.50 0.98268
18.00 0.97853
18.50 0.97436
19.00 0.96943
19.50 0.96455
20.00 0.95971
20.50 0.95491
21.00 0.95016
21.50 0.94584
22.00 0.94163
22.50 0.93708
23.00 0.93185
23.50 0.92667
24.00 0.92027
24.50 0.91370
25.00 0.90716
25.50 0.90066
26.00 0.89419
26.50 0.88780
27.00 0.88230
27.50 0.87673
28.00 0.87090
28.50 0.86402
29.00 0.85616
29.50 0.84831
30.00 0.84047
30.50 0.83265
31.00 0.82485
31.50 0.81770
32.00 0.81094
32.50 0.80241
33.00 0.79390
33.50 0.78508
34.00 0.77594
34.50 0.76708
35.00 0.75852
35.50 0.74997
36.00 0.74054
36.50 0.72890
37.00 0.71819
37.50 0.70917
38.00 0.70011
38.50 0.69090
39.00 0.67860
39.50 0.66626
40.00 0.65517
40.50 0.64355
41.00 0.63075
41.50 0.61789
42.00 0.60557
42.50 0.59191
43.00 0.57836
43.50 0.56449
44.00 0.54798
44.50 0.53254
45.00 0.51810
45.50 0.50074
46.00 0.48337
46.50 0.46598
47.00 0.44639
47.50 0.42839
48.00 0.40978
48.50 0.38929
49.00 0.36995
49.50 0.35050
50.00 0.32921
50.50 0.30729
51.00 0.28661
51.50 0.26889
52.00 0.25109
52.50 0.23249
53.00 0.21200
53.50 0.19147
54.00 0.17403
54.50 0.15810
55.00 0.14309
55.50 0.13136
56.00 0.11962
56.50 0.10803
57.00 0.09730
57.50 0.08657
58.00 0.07768
58.50 0.07132
59.00 0.06496
59.50 0.05877
60.00 0.05285
60.50 0.04692
61.00 0.04130
61.50 0.03801
62.00 0.03471
62.50 0.03141
63.00 0.02811
63.50 0.02480
64.00 0.02199
64.50 0.02028
65.00 0.01857
65.50 0.01685
66.00 0.01513
66.50 0.01342
67.00 0.01190
67.50 0.01093
68.00 0.00995
68.50 0.00897
69.00 0.00796
69.50 0.00706
70.00 0.00652
70.50 0.00598
71.00 0.00545
71.50 0.00491
72.00 0.00437
72.50 0.00382
73.00 0.00352
73.50 0.00325
74.00 0.00298
74.50 0.00271
75.00 0.00244
75.50 0.00217
76.00 0.00190
76.50 0.00170
77.00 0.00157
77.50 0.00145
78.00 0.00132
78.50 0.00120
79.00 0.00107
79.50 0.00094
80.00 0.00085
80.50 0.00079
81.00 0.00073
81.50 0.00067
82.00 0.00061
82.50 0.00055
83.00 0.00051
83.50 0.00048
84.00 0.00044
84.50 0.00041
85.00 0.00037
85.50 0.00034
86.00 0.00033
86.50 0.00031
87.00 0.00029
87.50 0.00028
88.00 0.00027
88.50 0.00026
89.00 0.00026
89.50 0.00025
90.00 0.00024
90.00 0.00024
90.50 0.00025
91.00 0.00026
91.50 0.00026
92.00 0.00027
92.50 0.00028
93.00 0.00029
93.50 0.00031
94.00 0.00033
94.50 0.00034
95.00 0.00037
95.50 0.00041
96.00 0.00044
96.50 0.00048
97.00 0.00051
97.50 0.00055
98.00 0.00061
98.50 0.00067
99.00 0.00073
99.50 0.00079
100.00 0.00085
100.50 0.00094
101.00 0.00107
101.50 0.00120
102.00 0.00132
102.50 0.00145
103.00 0.00157
103.50 0.00170
104.00 0.00190
104.50 0.00217
105.00 0.00244
105.50 0.00271
106.00 0.00298
106.50 0.00325
107.00 0.00352
107.50 0.00382
108.00 0.00437
108.50 0.00491
109.00 0.00545
109.50 0.00598
110.00 0.00652
110.50 0.00706
111.00 0.00796
111.50 0.00897
112.00 0.00995
112.50 0.01093
113.00 0.01190
113.50 0.01342
114.00 0.01513
114.50 0.01685
115.00 0.01857
115.50 0.02028
116.00 0.02199
116.50 0.02480
117.00 0.02811
117.50 0.03141
118.00 0.03471
118.50 0.03801
119.00 0.04130
119.50 0.04692
120.00 0.05285
120.50 0.05877
121.00 0.06496
121.50 0.07132
122.00 0.07768
122.50 0.08657
123.00 0.09730
123.50 0.10803
124.00 0.11962
124.50 0.13136
125.00 0.14309
125.50 0.15810
126.00 0.17403
126.50 0.19147
127.00 0.21200
127.50 0.23249
128.00 0.25109
128.50 0.26889
129.00 0.28661
129.50 0.30729
130.00 0.32921
130.50 0.35050
131.00 0.36995
131.50 0.38929
132.00 0.40978
132.50 0.42839
133.00 0.44639
133.50 0.46598
134.00 0.48337
134.50 0.50074
135.00 0.51810
135.50 0.53254
136.00 0.54798
136.50 0.56449
137.00 0.57836
137.50 0.59191
138.00 0.60557
138.50 0.61789
139.00 0.63075
139.50 0.64355
140.00 0.65517
140.50 0.66626
141.00 0.67860
141.50 0.69090
142.00 0.70011
142.50 0.70917
143.00 0.71819
143.50 0.72890
144.00 0.74054
144.50 0.74997
145.00 0.75852
145.50 0.76708
146.00 0.77594
146.50 0.78508
147.00 0.79390
147.50 0.80241
148.00 0.81094
148.50 0.81770
149.00 0.82485
149.50 0.83265
150.00 0.84047
150.50 0.84831
151.00 0.85616
151.50 0.86402
152.00 0.87090
152.50 0.87673
153.00 0.88230
153.50 0.88780
154.00 0.89419
154.50 0.90066
155.00 0.90716
155.50 0.91370
156.00 0.92027
156.50 0.92667
157.00 0.93185
157.50 0.93708
158.00 0.94163
158.50 0.94584
159.00 0.95016
159.50 0.95491
160.00 0.95971
160.50 0.96455
161.00 0.96943
161.50 0.97436
162.00 0.97853
162.50 0.98268
163.00 0.98572
163.50 0.98884
164.00 0.99234
164.50 0.99589
165.00 0.99949
165.50 1.00315
166.00 1.00685
166.50 1.01041
167.00 1.01334
167.50 1.01626
168.00 1.01827
168.50 1.02033
169.00 1.02257
169.50 1.02491
170.00 1.02731
170.50 1.02976
171.00 1.03227
171.50 1.03435
172.00 1.03620
172.50 1.03756
173.00 1.03866
173.50 1.03982
174.00 1.04134
174.50 1.04293
175.00 1.04458
175.50 1.04526
176.00 1.04580
176.50 1.04640
177.00 1.04706
177.50 1.04785
178.00 1.04824
178.50 1.04863
179.00 1.04908
179.50 1.04960
180.00 1.05018
180.00 1.05018
180.50 1.04960
181.00 1.04908
181.50 1.04863
182.00 1.04824
182.50 1.04785
183.00 1.04706
183.50 1.04640
184.00 1.04580
184.50 1.04526
185.00 1.04458
185.50 1.04293
186.00 1.04134
186.50 1.03982
187.00 1.03866
187.50 1.03756
188.00 1.03620
188.50 1.03435
189.00 1.03227
189.50 1.02976
190.00 1.02731
190.50 1.02491
191.00 1.02257
191.50 1.02033
192.00 1.01827
192.50 1.01626
193.00 1.01334
193.50 1.01041
194.00 1.00685
194.50 1.00315
195.00 0.99949
195.50 0.99589
196.00 0.99234
196.50 0.98884
197.00 0.98572
197.50 0.98268
198.00 0.97853
198.50 0.97436
199.00 0.96943
199.50 0.96455
200.00 0.95971
200.50 0.95491
201.00 0.95016
201.50 0.94584
202.00 0.94163
202.50 0.93708
203.00 0.93185
203.50 0.92667
204.00 0.92027
204.50 0.91370
205.00 0.90716
205.50 0.90066
206.00 0.89419
206.50 0.88780
207.00 0.88230
207.50 0.87673
208.00 0.87090
208.50 0.86402
209.00 0.85616
209.50 0.84831
210.00 0.84047
210.50 0.83265
211.00 0.82485
211.50 0.81770
212.00 0.81094
212.50 0.80241
213.00 0.79390
213.50 0.78508
214.00 0.77594
214.50 0.76708
215.00 0.75852
215.50 0.74997
216.00 0.74054
216.50 0.72890
217.00 0.71819
217.50 0.70917
218.00 0.70011
218.50 0.69090
219.00 0.67860
219.50 0.66626
220.00 0.65517
220.50 0.64355
221.00 0.63075
221.50 0.61789
222.00 0.60557
222.50 0.59191
223.00 0.57836
223.50 0.56449
224.00 0.54798
224.50 0.53254
225.00 0.51810
225.50 0.50074
226.00 0.48337
226.50 0.46598
227.00 0.44639
227.50 0.42839
228.00 0.40978
228.50 0.38929
229.00 0.36995
229.50 0.35050
230.00 0.32921
230.50 0.30729
231.00 0.28661
231.50 0.26889
232.00 0.25109
232.50 0.23249
233.00 0.21200
233.50 0.19147
234.00 0.17403
234.50 0.15810
235.00 0.14309
235.50 0.13136
236.00 0.11962
236.50 0.10803
237.00 0.09730
237.50 0.08657
238.00 0.07768
238.50 0.07132
239.00 0.06496
239.50 0.05877
240.00 0.05285
240.50 0.04692
241.00 0.04130
241.50 0.03801
242.00 0.03471
242.50 0.03141
243.00 0.02811
243.50 0.02480
244.00 0.02199
244.50 0.02028
245.00 0.01857
245.50 0.01685
246.00 0.01513
246.50 0.01342
247.00 0.01190
247.50 0.01093
248.00 0.00995
248.50 0.00897
249.00 0.00796
249.50 0.00706
250.00 0.00652
250.50 0.00598
251.00 0.00545
251.50 0.00491
252.00 0.00437
252.50 0.00382
253.00 0.00352
253.50 0.00325
254.00 0.00298
254.50 0.00271
255.00 0.00244
255.50 0.00217
256.00 0.00190
256.50 0.00170
257.00 0.00157
257.50 0.00145
258.00 0.00132
258.50 0.00120
259.00 0.00107
259.50 0.00094
260.00 0.00085
260.50 0.00079
261.00 0.00073
261.50 0.00067
262.00 0.00061
262.50 0.00055
263.00 0.00051
263.50 0.00048
264.00 0.00044
264.50 0.00041
265.00 0.00037
265.50 0.00034
266.00 0.00033
266.50 0.00031
267.00 0.00029
267.50 0.00028
268.00 0.00027
268.50 0.00026
269.00 0.00026
269.50 0.00025
270.00 0.00024
270.00 0.00024
270.50 0.00025
271.00 0.00026
271.50 0.00026
272.00 0.00027
272.50 0.00028
273.00 0.00029
273.50 0.00031
274.00 0.00033
274.50 0.00034
275.00 0.00037
275.50 0.00041
276.00 0.00044
276.50 0.00048
277.00 0.00051
277.50 0.00055
278.00 0.00061
278.50 0.00067
279.00 0.00073
279.50 0.00079
280.00 0.00085
280.50 0.00094
281.00 0.00107
281.50 0.00120
282.00 0.00132
282.50 0.00145
283.00 0.00157
283.50 0.00170
284.00 0.00190
284.50 0.00217
285.00 0.00244
285.50 0.00271
286.00 0.00298
286.50 0.00325
287.00 0.00352
287.50 0.00382
288.00 0.00437
288.50 0.00491
289.00 0.00545
289.50 0.00598
290.00 0.00652
290.50 0.00706
291.00 0.00796
291.50 0.00897
292.00 0.00995
292.50 0.01093
293.00 0.01190
293.50 0.01342
294.00 0.01513
294.50 0.01685
295.00 0.01857
295.50 0.02028
296.00 0.02199
296.50 0.02480
297.00 0.02811
297.50 0.03141
298.00 0.03471
298.50 0.03801
299.00 0.04130
299.50 0.04692
300.00 0.05285
300.50 0.05877
301.00 0.06496
301.50 0.07132
302.00 0.07768
302.50 0.08657
303.00 0.09730
303.50 0.10803
304.00 0.11962
304.50 0.13136
305.00 0.14309
305.50 0.15810
306.00 0.17403
306.50 0.19147
307.00 0.21200
307.50 0.23249
308.00 0.25109
308.50 0.26889
309.00 0.28661
309.50 0.30729
310.00 0.32921
310.50 0.35050
311.00 0.36995
311.50 0.38929
312.00 0.40978
312.50 0.42839
313.00 0.44639
313.50 0.46598
314.00 0.48337
314.50 0.50074
315.00 0.51810
315.50 0.53254
316.00 0.54798
316.50 0.56449
317.00 0.57836
317.50 0.59191
318.00 0.60557
318.50 0.61789
319.00 0.63075
319.50 0.64355
320.00 0.65517
320.50 0.66626
321.00 0.67860
321.50 0.69090
322.00 0.70011
322.50 0.70917
323.00 0.71819
323.50 0.72890
324.00 0.74054
324.50 0.74997
325.00 0.75852
325.50 0.76708
326.00 0.77594
326.50 0.78508
327.00 0.79390
327.50 0.80241
328.00 0.81094
328.50 0.81770
329.00 0.82485
329.50 0.83265
330.00 0.84047
330.50 0.84831
331.00 0.85616
331.50 0.86402
332.00 0.87090
332.50 0.87673
333.00 0.88230
333.50 0.88780
334.00 0.89419
334.50 0.90066
335.00 0.90716
335.50 0.91370
336.00 0.92027
336.50 0.92667
337.00 0.93185
337.50 0.93708
338.00 0.94163
338.50 0.94584
339.00 0.95016
339.50 0.95491
340.00 0.95971
340.50 0.96455
341.00 0.96943
341.50 0.97436
342.00 0.97853
342.50 0.98268
343.00 0.98572
343.50 0.98884
344.00 0.99234
344.50 0.99589
345.00 0.99949
345.50 1.00315
346.00 1.00685
346.50 1.01041
347.00 1.01334
347.50 1.01626
348.00 1.01827
348.50 1.02033
349.00 1.02257
349.50 1.02491
350.00 1.02731
350.50 1.02976
351.00 1.03227
351.50 1.03435
352.00 1.03620
352.50 1.03756
353.00 1.03866
353.50 1.03982
354.00 1.04134
354.50 1.04293
355.00 1.04458
355.50 1.04526
356.00 1.04580
356.50 1.04640
357.00 1.04706
357.50 1.04785
358.00 1.04824
358.50 1.04863
359.00 1.04908
359.50 1.04960
360.00 1.05018
