phi[deg] B[T]
0.00 1.67200
0.50 1.67200
1.00 1.67212
1.50 1.67238
2.00 1.67278
2.50 1.67330
3.00 1.67410
3.50 1.67511
4.00 1.67624
4.50 1.67750
5.00 1.67888
5.50 1.68047
6.00 1.68232
6.50 1.68429
7.00 1.68638
7.50 1.68745
8.00 1.68821
8.50 1.68937
9.00 1.69083
9.50 1.69240
10.00 1.69407
10.50 1.69547
11.00 1.69404
11.50 1.69270
12.00 1.69277
12.50 1.69300
13.00 1.69332
13.50 1.69343
14.00 1.69115
14.50 1.68895
15.00 1.68684
15.50 1.68411
16.00 1.68042
16.50 1.67680
17.00 1.67319
17.50 1.66869
18.00 1.66426
18.50 1.65991
19.00 1.65563
19.50 1.65142
20.00 1.64626
20.50 1.63842
21.00 1.63090
21.50 1.62344
22.00 1.61604
22.50 1.60869
23.00 1.60138
23.50 1.59413
24.00 1.58193
24.50 1.56936
25.00 1.55662
25.50 1.54349
26.00 1.53040
26.50 1.51734
27.00 1.50432
27.50 1.49134
28.00 1.47503
28.50 1.45824
29.00 1.44149
29.50 1.42557
30.00 1.41079
30.50 1.39603
31.00 1.38128
31.50 1.36587
32.00 1.34911
32.50 1.33236
33.00 1.31565
33.50 1.29722
34.00 1.27790
34.50 1.25859
35.00 1.23929
35.50 1.22102
36.00 1.20286
36.50 1.18470
37.00 1.16479
37.50 1.14442
38.00 1.12405
38.50 1.10369
39.00 1.08261
39.50 1.06244
40.00 1.04252
40.50 1.02260
41.00 1.00268
41.50 0.98119
42.00 0.96070
42.50 0.94141
43.00 0.92210
43.50 0.90215
44.00 0.88206
44.50 0.86196
45.00 0.84142
45.50 0.82049
46.00 0.80092
46.50 0.78130
47.00 0.76162
47.50 0.74171
48.00 0.72176
48.50 0.70161
49.00 0.68069
49.50 0.66109
50.00 0.64167
50.50 0.62219
51.00 0.60267
51.50 0.58205
52.00 0.56131
52.50 0.54250
53.00 0.52362
53.50 0.50467
54.00 0.48651
54.50 0.46866
55.00 0.45076
55.50 0.43201
56.00 0.41269
56.50 0.39331
57.00 0.37443
57.50 0.35566
58.00 0.33682
58.50 0.31793
59.00 0.29897
59.50 0.28264
60.00 0.26675
60.50 0.25082
61.00 0.23436
61.50 0.21746
62.00 0.20052
62.50 0.18355
63.00 0.16874
63.50 0.15615
64.00 0.14353
64.50 0.13089
65.00 0.11928
65.50 0.10936
66.00 0.10044
66.50 0.09273
67.00 0.08500
67.50 0.07726
68.00 0.06952
68.50 0.06394
69.00 0.05938
69.50 0.05482
70.00 0.05027
70.50 0.04576
71.00 0.04162
71.50 0.03748
72.00 0.03334
72.50 0.03025
73.00 0.02821
73.50 0.02617
74.00 0.02413
74.50 0.02211
75.00 0.02009
75.50 0.01808
76.00 0.01607
76.50 0.01465
77.00 0.01357
77.50 0.01248
78.00 0.01139
78.50 0.01036
79.00 0.00952
79.50 0.00868
80.00 0.00784
80.50 0.00718
81.00 0.00663
81.50 0.00608
82.00 0.00556
82.50 0.00517
83.00 0.00477
83.50 0.00437
84.00 0.00401
84.50 0.00373
85.00 0.00344
85.50 0.00327
86.00 0.00311
86.50 0.00295
87.00 0.00279
87.50 0.00263
88.00 0.00255
88.50 0.00247
89.00 0.00240
89.50 0.00233
90.00 0.00226
90.00 0.00226
90.50 0.00233
91.00 0.00240
91.50 0.00247
92.00 0.00255
92.50 0.00263
93.00 0.00279
93.50 0.00295
94.00 0.00311
94.50 0.00327
95.00 0.00344
95.50 0.00373
96.00 0.00401
96.50 0.00437
97.00 0.00477
97.50 0.00517
98.00 0.00556
98.50 0.00608
99.00 0.00663
99.50 0.00718
100.00 0.00784
100.50 0.00868
101.00 0.00952
101.50 0.01036
102.00 0.01139
102.50 0.01248
103.00 0.01357
103.50 0.01465
104.00 0.01607
104.50 0.01808
105.00 0.02009
105.50 0.02211
106.00 0.02413
106.50 0.02617
107.00 0.02821
107.50 0.03025
108.00 0.03334
108.50 0.03748
109.00 0.04162
109.50 0.04576
110.00 0.05027
110.50 0.05482
111.00 0.05938
111.50 0.06394
112.00 0.06952
112.50 0.07726
113.00 0.08500
113.50 0.09273
114.00 0.10044
114.50 0.10936
115.00 0.11928
115.50 0.13089
116.00 0.14353
116.50 0.15615
117.00 0.16874
117.50 0.18355
118.00 0.20052
118.50 0.21746
119.00 0.23436
119.50 0.25082
120.00 0.26675
120.50 0.28264
121.00 0.29897
121.50 0.31793
122.00 0.33682
122.50 0.35566
123.00 0.37443
123.50 0.39331
124.00 0.41269
124.50 0.43201
125.00 0.45076
125.50 0.46866
126.00 0.48651
126.50 0.50467
127.00 0.52362
127.50 0.54250
128.00 0.56131
128.50 0.58205
129.00 0.60267
129.50 0.62219
130.00 0.64167
130.50 0.66109
131.00 0.68069
131.50 0.70161
132.00 0.72176
132.50 0.74171
133.00 0.76162
133.50 0.78130
134.00 0.80092
134.50 0.82049
135.00 0.84142
135.50 0.86196
136.00 0.88206
136.50 0.90215
137.00 0.92210
137.50 0.94141
138.00 0.96070
138.50 0.98119
139.00 1.00268
139.50 1.02260
140.00 1.04252
140.50 1.06244
141.00 1.08261
141.50 1.10369
142.00 1.12405
142.50 1.14442
143.00 1.16479
143.50 1.18470
144.00 1.20286
144.50 1.22102
145.00 1.23929
145.50 1.25859
146.00 1.27790
146.50 1.29722
147.00 1.31565
147.50 1.33236
148.00 1.34911
148.50 1.36587
149.00 1.38128
149.50 1.39603
150.00 1.41079
150.50 1.42557
151.00 1.44149
151.50 1.45824
152.00 1.47503
152.50 1.49134
153.00 1.50432
153.50 1.51734
154.00 1.53040
154.50 1.54349
155.00 1.55662
155.50 1.56936
156.00 1.58193
156.50 1.59413
157.00 1.60138
157.50 1.60869
158.00 1.61604
158.50 1.62344
159.00 1.63090
159.50 1.63842
160.00 1.64626
160.50 1.65142
161.00 1.65563
161.50 1.65991
162.00 1.66426
162.50 1.66869
163.00 1.67319
163.50 1.67680
164.00 1.68042
164.50 1.68411
165.00 1.68684
165.50 1.68895
166.00 1.69115
166.50 1.69343
167.00 1.69332
167.50 1.69300
168.00 1.69277
168.50 1.69270
169.00 1.69404
169.50 1.69547
170.00 1.69407
170.50 1.69240
171.00 1.69083
171.50 1.68937
172.00 1.68821
172.50 1.68745
173.00 1.68638
173.50 1.68429
174.00 1.68232
174.50 1.68047
175.00 1.67888
175.50 1.67750
176.00 1.67624
176.50 1.67511
177.00 1.67410
177.50 1.67330
178.00 1.67278
178.50 1.67238
179.00 1.67212
179.50 1.67200
180.00 1.67200
180.00 1.67200
180.50 1.67200
181.00 1.67212
181.50 1.67238
182.00 1.67278
182.50 1.67330
183.00 1.67410
183.50 1.67511
184.00 1.67624
184.50 1.67750
185.00 1.67888
185.50 1.68047
186.00 1.68232
186.50 1.68429
187.00 1.68638
187.50 1.68745
188.00 1.68821
188.50 1.68937
189.00 1.69083
189.50 1.69240
190.00 1.69407
190.50 1.69547
191.00 1.69404
191.50 1.69270
192.00 1.69277
192.50 1.69300
193.00 1.69332
193.50 1.69343
194.00 1.69115
194.50 1.68895
195.00 1.68684
195.50 1.68411
196.00 1.68042
196.50 1.67680
197.00 1.67319
197.50 1.66869
198.00 1.66426
198.50 1.65991
199.00 1.65563
199.50 1.65142
200.00 1.64626
200.50 1.63842
201.00 1.63090
201.50 1.62344
202.00 1.61604
202.50 1.60869
203.00 1.60138
203.50 1.59413
204.00 1.58193
204.50 1.56936
205.00 1.55662
205.50 1.54349
206.00 1.53040
206.50 1.51734
207.00 1.50432
207.50 1.49134
208.00 1.47503
208.50 1.45824
209.00 1.44149
209.50 1.42557
210.00 1.41079
210.50 1.39603
211.00 1.38128
211.50 1.36587
212.00 1.34911
212.50 1.33236
213.00 1.31565
213.50 1.29722
214.00 1.27790
214.50 1.25859
215.00 1.23929
215.50 1.22102
216.00 1.20286
216.50 1.18470
217.00 1.16479
217.50 1.14442
218.00 1.12405
218.50 1.10369
219.00 1.08261
219.50 1.06244
220.00 1.04252
220.50 1.02260
221.00 1.00268
221.50 0.98119
222.00 0.96070
222.50 0.94141
223.00 0.92210
223.50 0.90215
224.00 0.88206
224.50 0.86196
225.00 0.84142
225.50 0.82049
226.00 0.80092
226.50 0.78130
227.00 0.76162
227.50 0.74171
228.00 0.72176
228.50 0.70161
229.00 0.68069
229.50 0.66109
230.00 0.64167
230.50 0.62219
231.00 0.60267
231.50 0.58205
232.00 0.56131
232.50 0.54250
233.00 0.52362
233.50 0.50467
234.00 0.48651
234.50 0.46866
235.00 0.45076
235.50 0.43201
236.00 0.41269
236.50 0.39331
237.00 0.37443
237.50 0.35566
238.00 0.33682
238.50 0.31793
239.00 0.29897
239.50 0.28264
240.00 0.26675
240.50 0.25082
241.00 0.23436
241.50 0.21746
242.00 0.20052
242.50 0.18355
243.00 0.16874
243.50 0.15615
244.00 0.14353
244.50 0.13089
245.00 0.11928
245.50 0.10936
246.00 0.10044
246.50 0.09273
247.00 0.08500
247.50 0.07726
248.00 0.06952
248.50 0.06394
249.00 0.05938
249.50 0.05482
250.00 0.05027
250.50 0.04576
251.00 0.04162
251.50 0.03748
252.00 0.03334
252.50 0.03025
253.00 0.02821
253.50 0.02617
254.00 0.02413
254.50 0.02211
255.00 0.02009
255.50 0.01808
256.00 0.01607
256.50 0.01465
257.00 0.01357
257.50 0.01248
258.00 0.01139
258.50 0.01036
259.00 0.00952
259.50 0.00868
260.00 0.00784
260.50 0.00718
261.00 0.00663
261.50 0.00608
262.00 0.00556
262.50 0.00517
263.00 0.00477
263.50 0.00437
264.00 0.00401
264.50 0.00373
265.00 0.00344
265.50 0.00327
266.00 0.00311
266.50 0.00295
267.00 0.00279
267.50 0.00263
268.00 0.00255
268.50 0.00247
269.00 0.00240
269.50 0.00233
270.00 0.00226
270.00 0.00226
270.50 0.00233
271.00 0.00240
271.50 0.00247
272.00 0.00255
272.50 0.00263
273.00 0.00279
273.50 0.00295
274.00 0.00311
274.50 0.00327
275.00 0.00344
275.50 0.00373
276.00 0.00401
276.50 0.00437
277.00 0.00477
277.50 0.00517
278.00 0.00556
278.50 0.00608
279.00 0.00663
279.50 0.00718
280.00 0.00784
280.50 0.00868
281.00 0.00952
281.50 0.01036
282.00 0.01139
282.50 0.01248
283.00 0.01357
283.50 0.01465
284.00 0.01607
284.50 0.01808
285.00 0.02009
285.50 0.02211
286.00 0.02413
286.50 0.02617
287.00 0.02821
287.50 0.03025
288.00 0.03334
288.50 0.03748
289.00 0.04162
289.50 0.04576
290.00 0.05027
290.50 0.05482
291.00 0.05938
291.50 0.06394
292.00 0.06952
292.50 0.07726
293.00 0.08500
293.50 0.09273
294.00 0.10044
294.50 0.10936
295.00 0.11928
295.50 0.13089
296.00 0.14353
296.50 0.15615
297.00 0.16874
297.50 0.18355
298.00 0.20052
298.50 0.21746
299.00 0.23436
299.50 0.25082
300.00 0.26675
300.50 0.28264
301.00 0.29897
301.50 0.31793
302.00 0.33682
302.50 0.35566
303.00 0.37443
303.50 0.39331
304.00 0.41269
304.50 0.43201
305.00 0.45076
305.50 0.46866
306.00 0.48651
306.50 0.50467
307.00 0.52362
307.50 0.54250
308.00 0.56131
308.50 0.58205
309.00 0.60267
309.50 0.62219
310.00 0.64167
310.50 0.66109
311.00 0.68069
311.50 0.70161
312.00 0.72176
312.50 0.74171
313.00 0.76162
313.50 0.78130
314.00 0.80092
314.50 0.82049
315.00 0.84142
315.50 0.86196
316.00 0.88206
316.50 0.90215
317.00 0.92210
317.50 0.94141
318.00 0.96070
318.50 0.98119
319.00 1.00268
319.50 1.02260
320.00 1.04252
320.50 1.06244
321.00 1.08261
321.50 1.10369
322.00 1.12405
322.50 1.14442
323.00 1.16479
323.50 1.18470
324.00 1.20286
324.50 1.22102
325.00 1.23929
325.50 1.25859
326.00 1.27790
326.50 1.29722
327.00 1.31565
327.50 1.33236
328.00 1.34911
328.50 1.36587
329.00 1.38128
329.50 1.39603
330.00 1.41079
330.50 1.42557
331.00 1.44149
331.50 1.45824
332.00 1.47503
332.50 1.49134
333.00 1.50432
333.50 1.51734
334.00 1.53040
334.50 1.54349
335.00 1.55662
335.50 1.56936
336.00 1.58193
336.50 1.59413
337.00 1.60138
337.50 1.60869
338.00 1.61604
338.50 1.62344
339.00 1.63090
339.50 1.63842
340.00 1.64626
340.50 1.65142
341.00 1.65563
341.50 1.65991
342.00 1.66426
342.50 1.66869
343.00 1.67319
343.50 1.67680
344.00 1.68042
344.50 1.68411
345.00 1.68684
345.50 1.68895
346.00 1.69115
346.50 1.69343
347.00 1.69332
347.50 1.69300
348.00 1.69277
348.50 1.69270
349.00 1.69404
349.50 1.69547
350.00 1.69407
350.50 1.69240
351.00 1.69083
351.50 1.68937
352.00 1.68821
352.50 1.68745
353.00 1.68638
353.50 1.68429
354.00 1.68232
354.50 1.68047
355.00 1.67888
355.50 1.67750
356.00 1.67624
356.50 1.67511
357.00 1.67410
357.50 1.67330
358.00 1.67278
358.50 1.67238
359.00 1.67212
359.50 1.67200
360.00 1.67200
