phi[deg] B[T]
0.00 1.75821
0.50 1.75822
1.00 1.75837
1.50 1.75867
2.00 1.75910
2.50 1.75967
3.00 1.76054
3.50 1.76163
4.00 1.76286
4.50 1.76421
5.00 1.76569
5.50 1.76739
6.00 1.76935
6.50 1.77143
7.00 1.77365
7.50 1.77482
8.00 1.77567
8.50 1.77696
9.00 1.77859
9.50 1.78033
10.00 1.78218
10.50 1.78374
11.00 1.78237
11.50 1.78110
12.00 1.78140
12.50 1.78189
13.00 1.78245
13.50 1.78282
14.00 1.78083
14.50 1.77893
15.00 1.77712
15.50 1.77455
16.00 1.77080
16.50 1.76712
17.00 1.76344
17.50 1.75888
18.00 1.75439
18.50 1.74998
19.00 1.74563
19.50 1.74136
20.00 1.73600
20.50 1.72760
21.00 1.71947
21.50 1.71141
22.00 1.70340
22.50 1.69543
23.00 1.68751
23.50 1.67964
24.00 1.66631
24.50 1.65257
25.00 1.63855
25.50 1.62395
26.00 1.60939
26.50 1.59486
27.00 1.58036
27.50 1.56591
28.00 1.54798
28.50 1.52955
29.00 1.51115
29.50 1.49354
30.00 1.47699
30.50 1.46046
31.00 1.44395
31.50 1.42671
32.00 1.40803
32.50 1.38936
33.00 1.37072
33.50 1.35056
34.00 1.32962
34.50 1.30868
35.00 1.28775
35.50 1.26775
36.00 1.24784
36.50 1.22794
37.00 1.20648
37.50 1.18461
38.00 1.16275
38.50 1.14090
39.00 1.11849
39.50 1.09705
40.00 1.07588
40.50 1.05472
41.00 1.03357
41.50 1.01118
42.00 0.98977
42.50 0.96951
43.00 0.94924
43.50 0.92874
44.00 0.90819
44.50 0.88763
45.00 0.86656
45.50 0.84554
46.00 0.82581
46.50 0.80604
47.00 0.78629
47.50 0.76685
48.00 0.74737
48.50 0.72745
49.00 0.70670
49.50 0.68770
50.00 0.66866
50.50 0.64957
51.00 0.63045
51.50 0.60983
52.00 0.59019
52.50 0.57162
53.00 0.55299
53.50 0.53428
54.00 0.51640
54.50 0.49884
55.00 0.48121
55.50 0.46216
56.00 0.44221
56.50 0.42219
57.00 0.40252
57.50 0.38281
58.00 0.36302
58.50 0.34317
59.00 0.32325
59.50 0.30625
60.00 0.28937
60.50 0.27244
61.00 0.25472
61.50 0.23662
62.00 0.21848
62.50 0.20031
63.00 0.18399
63.50 0.17018
64.00 0.15634
64.50 0.14246
65.00 0.12948
65.50 0.11888
66.00 0.10938
66.50 0.10097
67.00 0.09256
67.50 0.08413
68.00 0.07569
68.50 0.06978
69.00 0.06480
69.50 0.05982
70.00 0.05484
70.50 0.04989
71.00 0.04536
71.50 0.04084
72.00 0.03631
72.50 0.03302
73.00 0.03079
73.50 0.02856
74.00 0.02633
74.50 0.02411
75.00 0.02190
75.50 0.01969
76.00 0.01748
76.50 0.01597
77.00 0.01479
77.50 0.01360
78.00 0.01241
78.50 0.01131
79.00 0.01038
79.50 0.00945
80.00 0.00852
80.50 0.00784
81.00 0.00723
81.50 0.00662
82.00 0.00607
82.50 0.00563
83.00 0.00519
83.50 0.00475
84.00 0.00437
84.50 0.00406
85.00 0.00375
85.50 0.00357
86.00 0.00339
86.50 0.00322
87.00 0.00304
87.50 0.00287
88.00 0.00277
88.50 0.00269
89.00 0.00262
89.50 0.00254
90.00 0.00246
90.00 0.00246
90.50 0.00254
91.00 0.00262
91.50 0.00269
92.00 0.00277
92.50 0.00287
93.00 0.00304
93.50 0.00322
94.00 0.00339
94.50 0.00357
95.00 0.00375
95.50 0.00406
96.00 0.00437
96.50 0.00475
97.00 0.00519
97.50 0.00563
98.00 0.00607
98.50 0.00662
99.00 0.00723
99.50 0.00784
100.00 0.00852
100.50 0.00945
101.00 0.01038
101.50 0.01131
102.00 0.01241
102.50 0.01360
103.00 0.01479
103.50 0.01597
104.00 0.01748
104.50 0.01969
105.00 0.02190
105.50 0.02411
106.00 0.02633
106.50 0.02856
107.00 0.03079
107.50 0.03302
108.00 0.03631
108.50 0.04084
109.00 0.04536
109.50 0.04989
110.00 0.05484
110.50 0.05982
111.00 0.06480
111.50 0.06978
112.00 0.07569
112.50 0.08413
113.00 0.09256
113.50 0.10097
114.00 0.10938
114.50 0.11888
115.00 0.12948
115.50 0.14246
116.00 0.15634
116.50 0.17018
117.00 0.18399
117.50 0.20031
118.00 0.21848
118.50 0.23662
119.00 0.25472
119.50 0.27244
120.00 0.28937
120.50 0.30625
121.00 0.32325
121.50 0.34317
122.00 0.36302
122.50 0.38281
123.00 0.40252
123.50 0.42219
124.00 0.44221
124.50 0.46216
125.00 0.48121
125.50 0.49884
126.00 0.51640
126.50 0.53428
127.00 0.55299
127.50 0.57162
128.00 0.59019
128.50 0.60983
129.00 0.63045
129.50 0.64957
130.00 0.66866
130.50 0.68770
131.00 0.70670
131.50 0.72745
132.00 0.74737
132.50 0.76685
133.00 0.78629
133.50 0.80604
134.00 0.82581
134.50 0.84554
135.00 0.86656
135.50 0.88763
136.00 0.90819
136.50 0.92874
137.00 0.94924
137.50 0.96951
138.00 0.98977
138.50 1.01118
139.00 1.03357
139.50 1.05472
140.00 1.07588
140.50 1.09705
141.00 1.11849
141.50 1.14090
142.00 1.16275
142.50 1.18461
143.00 1.20648
143.50 1.22794
144.00 1.24784
144.50 1.26775
145.00 1.28775
145.50 1.30868
146.00 1.32962
146.50 1.35056
147.00 1.37072
147.50 1.38936
148.00 1.40803
148.50 1.42671
149.00 1.44395
149.50 1.46046
150.00 1.47699
150.50 1.49354
151.00 1.51115
151.50 1.52955
152.00 1.54798
152.50 1.56591
153.00 1.58036
153.50 1.59486
154.00 1.60939
154.50 1.62395
155.00 1.63855
155.50 1.65257
156.00 1.66631
156.50 1.67964
157.00 1.68751
157.50 1.69543
158.00 1.70340
158.50 1.71141
159.00 1.71947
159.50 1.72760
160.00 1.73600
160.50 1.74136
161.00 1.74563
161.50 1.74998
162.00 1.75439
162.50 1.75888
163.00 1.76344
163.50 1.76712
164.00 1.77080
164.50 1.77455
165.00 1.77712
165.50 1.77893
166.00 1.78083
166.50 1.78282
167.00 1.78245
167.50 1.78189
168.00 1.78140
168.50 1.78110
169.00 1.78237
169.50 1.78374
170.00 1.78218
170.50 1.78033
171.00 1.77859
171.50 1.77696
172.00 1.77567
172.50 1.77482
173.00 1.77365
173.50 1.77143
174.00 1.76935
174.50 1.76739
175.00 1.76569
175.50 1.76421
176.00 1.76286
176.50 1.76163
177.00 1.76054
177.50 1.75967
178.00 1.75910
178.50 1.75867
179.00 1.75837
179.50 1.75822
180.00 1.75821
180.00 1.75821
180.50 1.75822
181.00 1.75837
181.50 1.75867
182.00 1.75910
182.50 1.75967
183.00 1.76054
183.50 1.76163
184.00 1.76286
184.50 1.76421
185.00 1.76569
185.50 1.76739
186.00 1.76935
186.50 1.77143
187.00 1.77365
187.50 1.77482
188.00 1.77567
188.50 1.77696
189.00 1.77859
189.50 1.78033
190.00 1.78218
190.50 1.78374
191.00 1.78237
191.50 1.78110
192.00 1.78140
192.50 1.78189
193.00 1.78245
193.50 1.78282
194.00 1.78083
194.50 1.77893
195.00 1.77712
195.50 1.77455
196.00 1.77080
196.50 1.76712
197.00 1.76344
197.50 1.75888
198.00 1.75439
198.50 1.74998
199.00 1.74563
199.50 1.74136
200.00 1.73600
200.50 1.72760
201.00 1.71947
201.50 1.71141
202.00 1.70340
202.50 1.69543
203.00 1.68751
203.50 1.67964
204.00 1.66631
204.50 1.65257
205.00 1.63855
205.50 1.62395
206.00 1.60939
206.50 1.59486
207.00 1.58036
207.50 1.56591
208.00 1.54798
208.50 1.52955
209.00 1.51115
209.50 1.49354
210.00 1.47699
210.50 1.46046
211.00 1.44395
211.50 1.42671
212.00 1.40803
212.50 1.38936
213.00 1.37072
213.50 1.35056
214.00 1.32962
214.50 1.30868
215.00 1.28775
215.50 1.26775
216.00 1.24784
216.50 1.22794
217.00 1.20648
217.50 1.18461
218.00 1.16275
218.50 1.14090
219.00 1.11849
219.50 1.09705
220.00 1.07588
220.50 1.05472
221.00 1.03357
221.50 1.01118
222.00 0.98977
222.50 0.96951
223.00 0.94924
223.50 0.92874
224.00 0.90819
224.50 0.88763
225.00 0.86656
225.50 0.84554
226.00 0.82581
226.50 0.80604
227.00 0.78629
227.50 0.76685
228.00 0.74737
228.50 0.72745
229.00 0.70670
229.50 0.68770
230.00 0.66866
230.50 0.64957
231.00 0.63045
231.50 0.60983
232.00 0.59019
232.50 0.57162
233.00 0.55299
233.50 0.53428
234.00 0.51640
234.50 0.49884
235.00 0.48121
235.50 0.46216
236.00 0.44221
236.50 0.42219
237.00 0.40252
237.50 0.38281
238.00 0.36302
238.50 0.34317
239.00 0.32325
239.50 0.30625
240.00 0.28937
240.50 0.27244
241.00 0.25472
241.50 0.23662
242.00 0.21848
242.50 0.20031
243.00 0.18399
243.50 0.17018
244.00 0.15634
244.50 0.14246
245.00 0.12948
245.50 0.11888
246.00 0.10938
246.50 0.10097
247.00 0.09256
247.50 0.08413
248.00 0.07569
248.50 0.06978
249.00 0.06480
249.50 0.05982
250.00 0.05484
250.50 0.04989
251.00 0.04536
251.50 0.04084
252.00 0.03631
252.50 0.03302
253.00 0.03079
253.50 0.02856
254.00 0.02633
254.50 0.02411
255.00 0.02190
255.50 0.01969
256.00 0.01748
256.50 0.01597
257.00 0.01479
257.50 0.01360
258.00 0.01241
258.50 0.01131
259.00 0.01038
259.50 0.00945
260.00 0.00852
260.50 0.00784
261.00 0.00723
261.50 0.00662
262.00 0.00607
262.50 0.00563
263.00 0.00519
263.50 0.00475
264.00 0.00437
264.50 0.00406
265.00 0.00375
265.50 0.00357
266.00 0.00339
266.50 0.00322
267.00 0.00304
267.50 0.00287
268.00 0.00277
268.50 0.00269
269.00 0.00262
269.50 0.00254
270.00 0.00246
270.00 0.00246
270.50 0.00254
271.00 0.00262
271.50 0.00269
272.00 0.00277
272.50 0.00287
273.00 0.00304
273.50 0.00322
274.00 0.00339
274.50 0.00357
275.00 0.00375
275.50 0.00406
276.00 0.00437
276.50 0.00475
277.00 0.00519
277.50 0.00563
278.00 0.00607
278.50 0.00662
279.00 0.00723
279.50 0.00784
280.00 0.00852
280.50 0.00945
281.00 0.01038
281.50 0.01131
282.00 0.01241
282.50 0.01360
283.00 0.01479
283.50 0.01597
284.00 0.01748
284.50 0.01969
285.00 0.02190
285.50 0.02411
286.00 0.02633
286.50 0.02856
287.00 0.03079
287.50 0.03302
288.00 0.03631
288.50 0.04084
289.00 0.04536
289.50 0.04989
290.00 0.05484
290.50 0.05982
291.00 0.06480
291.50 0.06978
292.00 0.07569
292.50 0.08413
293.00 0.09256
293.50 0.10097
294.00 0.10938
294.50 0.11888
295.00 0.12948
295.50 0.14246
296.00 0.15634
296.50 0.17018
297.00 0.18399
297.50 0.20031
298.00 0.21848
298.50 0.23662
299.00 0.25472
299.50 0.27244
300.00 0.28937
300.50 0.30625
301.00 0.32325
301.50 0.34317
302.00 0.36302
302.50 0.38281
303.00 0.40252
303.50 0.42219
304.00 0.44221
304.50 0.46216
305.00 0.48121
305.50 0.49884
306.00 0.51640
306.50 0.53428
307.00 0.55299
307.50 0.57162
308.00 0.59019
308.50 0.60983
309.00 0.63045
309.50 0.64957
310.00 0.66866
310.50 0.68770
311.00 0.70670
311.50 0.72745
312.00 0.74737
312.50 0.76685
313.00 0.78629
313.50 0.80604
314.00 0.82581
314.50 0.84554
315.00 0.86656
315.50 0.88763
316.00 0.90819
316.50 0.92874
317.00 0.94924
317.50 0.96951
318.00 0.98977
318.50 1.01118
319.00 1.03357
319.50 1.05472
320.00 1.07588
320.50 1.09705
321.00 1.11849
321.50 1.14090
322.00 1.16275
322.50 1.18461
323.00 1.20648
323.50 1.22794
324.00 1.24784
324.50 1.26775
325.00 1.28775
325.50 1.30868
326.00 1.32962
326.50 1.35056
327.00 1.37072
327.50 1.38936
328.00 1.40803
328.50 1.42671
329.00 1.44395
329.50 1.46046
330.00 1.47699
330.50 1.49354
331.00 1.51115
331.50 1.52955
332.00 1.54798
332.50 1.56591
333.00 1.58036
333.50 1.59486
334.00 1.60939
334.50 1.62395
335.00 1.63855
335.50 1.65257
336.00 1.66631
336.50 1.67964
337.00 1.68751
337.50 1.69543
338.00 1.70340
338.50 1.71141
339.00 1.71947
339.50 1.72760
340.00 1.73600
340.50 1.74136
341.00 1.74563
341.50 1.74998
342.00 1.75439
342.50 1.75888
343.00 1.76344
343.50 1.76712
344.00 1.77080
344.50 1.77455
345.00 1.77712
345.50 1.77893
346.00 1.78083
346.50 1.78282
347.00 1.78245
347.50 1.78189
348.00 1.78140
348.50 1.78110
349.00 1.78237
349.50 1.78374
350.00 1.78218
350.50 1.78033
351.00 1.77859
351.50 1.77696
352.00 1.77567
352.50 1.77482
353.00 1.77365
353.50 1.77143
354.00 1.76935
354.50 1.76739
355.00 1.76569
355.50 1.76421
356.00 1.76286
356.50 1.76163
357.00 1.76054
357.50 1.75967
358.00 1.75910
358.50 1.75867
359.00 1.75837
359.50 1.75822
360.00 1.75821
