phi[deg] B[T]
0.00 1.53562
0.50 1.53496
1.00 1.53442
1.50 1.53399
2.00 1.53357
2.50 1.53308
3.00 1.53272
3.50 1.53248
4.00 1.53237
4.50 1.53248
5.00 1.53272
5.50 1.53329
6.00 1.53410
6.50 1.53503
7.00 1.53578
7.50 1.53656
8.00 1.53746
8.50 1.53848
9.00 1.54091
9.50 1.54333
10.00 1.54507
10.50 1.54592
11.00 1.54626
11.50 1.54668
12.00 1.54720
12.50 1.54624
13.00 1.54487
13.50 1.54349
14.00 1.54160
14.50 1.53981
15.00 1.53811
15.50 1.53607
16.00 1.53394
16.50 1.53187
17.00 1.52877
17.50 1.52576
18.00 1.52285
18.50 1.52055
19.00 1.51949
19.50 1.51807
20.00 1.51652
20.50 1.51185
21.00 1.50701
21.50 1.50221
22.00 1.49721
22.50 1.49117
23.00 1.48518
23.50 1.47686
24.00 1.46609
24.50 1.45533
25.00 1.44341
25.50 1.42859
26.00 1.41381
26.50 1.39879
27.00 1.38345
27.50 1.36816
28.00 1.35292
28.50 1.33737
29.00 1.32142
29.50 1.30664
30.00 1.29149
30.50 1.27541
31.00 1.25938
31.50 1.24340
32.00 1.22747
32.50 1.21337
33.00 1.19933
33.50 1.18281
34.00 1.16463
34.50 1.14648
35.00 1.12835
35.50 1.11100
36.00 1.09420
36.50 1.07460
37.00 1.05351
37.50 1.03272
38.00 1.01282
38.50 0.99291
39.00 0.97242
39.50 0.95197
40.00 0.93157
40.50 0.91130
41.00 0.89168
41.50 0.87236
42.00 0.85309
42.50 0.83397
43.00 0.81574
43.50 0.79759
44.00 0.77999
44.50 0.76277
45.00 0.74563
45.50 0.72972
46.00 0.71382
46.50 0.69900
47.00 0.68531
47.50 0.67085
48.00 0.65840
48.50 0.64668
49.00 0.63438
49.50 0.62174
50.00 0.60983
50.50 0.59922
51.00 0.59204
51.50 0.58075
52.00 0.56710
52.50 0.55336
53.00 0.53954
53.50 0.52647
54.00 0.51688
54.50 0.50290
55.00 0.48415
55.50 0.46522
56.00 0.44613
56.50 0.42687
57.00 0.40871
57.50 0.39202
58.00 0.36312
58.50 0.33798
59.00 0.31512
59.50 0.29213
60.00 0.26798
60.50 0.24208
61.00 0.21607
61.50 0.19026
62.00 0.17101
62.50 0.15394
63.00 0.13661
63.50 0.11878
64.00 0.10093
64.50 0.08890
65.00 0.07906
65.50 0.06920
66.00 0.05951
66.50 0.05071
67.00 0.04522
67.50 0.03993
68.00 0.03463
68.50 0.02933
69.00 0.02520
69.50 0.02200
70.00 0.01931
70.50 0.01688
71.00 0.01445
71.50 0.01256
72.00 0.01112
72.50 0.00968
73.00 0.00835
73.50 0.00715
74.00 0.00613
74.50 0.00549
75.00 0.00485
75.50 0.00422
76.00 0.00359
76.50 0.00310
77.00 0.00276
77.50 0.00243
78.00 0.00209
78.50 0.00179
79.00 0.00161
79.50 0.00144
80.00 0.00126
80.50 0.00109
81.00 0.00095
81.50 0.00085
82.00 0.00075
82.50 0.00065
83.00 0.00058
83.50 0.00052
84.00 0.00046
84.50 0.00040
85.00 0.00035
85.50 0.00032
86.00 0.00028
86.50 0.00025
87.00 0.00022
87.50 0.00020
88.00 0.00018
88.50 0.00016
89.00 0.00015
89.50 0.00014
90.00 0.00013
90.00 0.00013
90.50 0.00014
91.00 0.00015
91.50 0.00016
92.00 0.00018
92.50 0.00020
93.00 0.00022
93.50 0.00025
94.00 0.00028
94.50 0.00032
95.00 0.00035
95.50 0.00040
96.00 0.00046
96.50 0.00052
97.00 0.00058
97.50 0.00065
98.00 0.00075
98.50 0.00085
99.00 0.00095
99.50 0.00109
100.00 0.00126
100.50 0.00144
101.00 0.00161
101.50 0.00179
102.00 0.00209
102.50 0.00243
103.00 0.00276
103.50 0.00310
104.00 0.00359
104.50 0.00422
105.00 0.00485
105.50 0.00549
106.00 0.00613
106.50 0.00715
107.00 0.00835
107.50 0.00968
108.00 0.01112
108.50 0.01256
109.00 0.01445
109.50 0.01688
110.00 0.01931
110.50 0.02200
111.00 0.02520
111.50 0.02933
112.00 0.03463
112.50 0.03993
113.00 0.04522
113.50 0.05071
114.00 0.05951
114.50 0.06920
115.00 0.07906
115.50 0.08890
116.00 0.10093
116.50 0.11878
117.00 0.13661
117.50 0.15394
118.00 0.17101
118.50 0.19026
119.00 0.21607
119.50 0.24208
120.00 0.26798
120.50 0.29213
121.00 0.31512
121.50 0.33798
122.00 0.36312
122.50 0.39202
123.00 0.40871
123.50 0.42687
124.00 0.44613
124.50 0.46522
125.00 0.48415
125.50 0.50290
126.00 0.51688
126.50 0.52647
127.00 0.53954
127.50 0.55336
128.00 0.56710
128.50 0.58075
129.00 0.59204
129.50 0.59922
130.00 0.60983
130.50 0.62174
131.00 0.63438
131.50 0.64668
132.00 0.65840
132.50 0.67085
133.00 0.68531
133.50 0.69900
134.00 0.71382
134.50 0.72972
135.00 0.74563
135.50 0.76277
136.00 0.77999
136.50 0.79759
137.00 0.81574
137.50 0.83397
138.00 0.85309
138.50 0.87236
139.00 0.89168
139.50 0.91130
140.00 0.93157
140.50 0.95197
141.00 0.97242
141.50 0.99291
142.00 1.01282
142.50 1.03272
143.00 1.05351
143.50 1.07460
144.00 1.09420
144.50 1.11100
145.00 1.12835
145.50 1.14648
146.00 1.16463
146.50 1.18281
147.00 1.19933
147.50 1.21337
148.00 1.22747
148.50 1.24340
149.00 1.25938
149.50 1.27541
150.00 1.29149
150.50 1.30664
151.00 1.32142
151.50 1.33737
152.00 1.35292
152.50 1.36816
153.00 1.38345
153.50 1.39879
154.00 1.41381
154.50 1.42859
155.00 1.44341
155.50 1.45533
156.00 1.46609
156.50 1.47686
157.00 1.48518
157.50 1.49117
158.00 1.49721
158.50 1.50221
159.00 1.50701
159.50 1.51185
160.00 1.51652
160.50 1.51807
161.00 1.51949
161.50 1.52055
162.00 1.52285
162.50 1.52576
163.00 1.52877
163.50 1.53187
164.00 1.53394
164.50 1.53607
165.00 1.53811
165.50 1.53981
166.00 1.54160
166.50 1.54349
167.00 1.54487
167.50 1.54624
168.00 1.54720
168.50 1.54668
169.00 1.54626
169.50 1.54592
170.00 1.54507
170.50 1.54333
171.00 1.54091
171.50 1.53848
172.00 1.53746
172.50 1.53656
173.00 1.53578
173.50 1.53503
174.00 1.53410
174.50 1.53329
175.00 1.53272
175.50 1.53248
176.00 1.53237
176.50 1.53248
177.00 1.53272
177.50 1.53308
178.00 1.53357
178.50 1.53399
179.00 1.53442
179.50 1.53496
180.00 1.53562
180.00 1.53562
180.50 1.53496
181.00 1.53442
181.50 1.53399
182.00 1.53357
182.50 1.53308
183.00 1.53272
183.50 1.53248
184.00 1.53237
184.50 1.53248
185.00 1.53272
185.50 1.53329
186.00 1.53410
186.50 1.53503
187.00 1.53578
187.50 1.53656
188.00 1.53746
188.50 1.53848
189.00 1.54091
189.50 1.54333
190.00 1.54507
190.50 1.54592
191.00 1.54626
191.50 1.54668
192.00 1.54720
192.50 1.54624
193.00 1.54487
193.50 1.54349
194.00 1.54160
194.50 1.53981
195.00 1.53811
195.50 1.53607
196.00 1.53394
196.50 1.53187
197.00 1.52877
197.50 1.52576
198.00 1.52285
198.50 1.52055
199.00 1.51949
199.50 1.51807
200.00 1.51652
200.50 1.51185
201.00 1.50701
201.50 1.50221
202.00 1.49721
202.50 1.49117
203.00 1.48518
203.50 1.47686
204.00 1.46609
204.50 1.45533
205.00 1.44341
205.50 1.42859
206.00 1.41381
206.50 1.39879
207.00 1.38345
207.50 1.36816
208.00 1.35292
208.50 1.33737
209.00 1.32142
209.50 1.30664
210.00 1.29149
210.50 1.27541
211.00 1.25938
211.50 1.24340
212.00 1.22747
212.50 1.21337
213.00 1.19933
213.50 1.18281
214.00 1.16463
214.50 1.14648
215.00 1.12835
215.50 1.11100
216.00 1.09420
216.50 1.07460
217.00 1.05351
217.50 1.03272
218.00 1.01282
218.50 0.99291
219.00 0.97242
219.50 0.95197
220.00 0.93157
220.50 0.91130
221.00 0.89168
221.50 0.87236
222.00 0.85309
222.50 0.83397
223.00 0.81574
223.50 0.79759
224.00 0.77999
224.50 0.76277
225.00 0.74563
225.50 0.72972
226.00 0.71382
226.50 0.69900
227.00 0.68531
227.50 0.67085
228.00 0.65840
228.50 0.64668
229.00 0.63438
229.50 0.62174
230.00 0.60983
230.50 0.59922
231.00 0.59204
231.50 0.58075
232.00 0.56710
232.50 0.55336
233.00 0.53954
233.50 0.52647
234.00 0.51688
234.50 0.50290
235.00 0.48415
235.50 0.46522
236.00 0.44613
236.50 0.42687
237.00 0.40871
237.50 0.39202
238.00 0.36312
238.50 0.33798
239.00 0.31512
239.50 0.29213
240.00 0.26798
240.50 0.24208
241.00 0.21607
241.50 0.19026
242.00 0.17101
242.50 0.15394
243.00 0.13661
243.50 0.11878
244.00 0.10093
244.50 0.08890
245.00 0.07906
245.50 0.06920
246.00 0.05951
246.50 0.05071
247.00 0.04522
247.50 0.03993
248.00 0.03463
248.50 0.02933
249.00 0.02520
249.50 0.02200
250.00 0.01931
250.50 0.01688
251.00 0.01445
251.50 0.01256
252.00 0.01112
252.50 0.00968
253.00 0.00835
253.50 0.00715
254.00 0.00613
254.50 0.00549
255.00 0.00485
255.50 0.00422
256.00 0.00359
256.50 0.00310
257.00 0.00276
257.50 0.00243
258.00 0.00209
258.50 0.00179
259.00 0.00161
259.50 0.00144
260.00 0.00126
260.50 0.00109
261.00 0.00095
261.50 0.00085
262.00 0.00075
262.50 0.00065
263.00 0.00058
263.50 0.00052
264.00 0.00046
264.50 0.00040
265.00 0.00035
265.50 0.00032
266.00 0.00028
266.50 0.00025
267.00 0.00022
267.50 0.00020
268.00 0.00018
268.50 0.00016
269.00 0.00015
269.50 0.00014
270.00 0.00013
270.00 0.00013
270.50 0.00014
271.00 0.00015
271.50 0.00016
272.00 0.00018
272.50 0.00020
273.00 0.00022
273.50 0.00025
274.00 0.00028
274.50 0.00032
275.00 0.00035
275.50 0.00040
276.00 0.00046
276.50 0.00052
277.00 0.00058
277.50 0.00065
278.00 0.00075
278.50 0.00085
279.00 0.00095
279.50 0.00109
280.00 0.00126
280.50 0.00144
281.00 0.00161
281.50 0.00179
282.00 0.00209
282.50 0.00243
283.00 0.00276
283.50 0.00310
284.00 0.00359
284.50 0.00422
285.00 0.00485
285.50 0.00549
286.00 0.00613
286.50 0.00715
287.00 0.00835
287.50 0.00968
288.00 0.01112
288.50 0.01256
289.00 0.01445
289.50 0.01688
290.00 0.01931
290.50 0.02200
291.00 0.02520
291.50 0.02933
292.00 0.03463
292.50 0.03993
293.00 0.04522
293.50 0.05071
294.00 0.05951
294.50 0.06920
295.00 0.07906
295.50 0.08890
296.00 0.10093
296.50 0.11878
297.00 0.13661
297.50 0.15394
298.00 0.17101
298.50 0.19026
299.00 0.21607
299.50 0.24208
300.00 0.26798
300.50 0.29213
301.00 0.31512
301.50 0.33798
302.00 0.36312
302.50 0.39202
303.00 0.40871
303.50 0.42687
304.00 0.44613
304.50 0.46522
305.00 0.48415
305.50 0.50290
306.00 0.51688
306.50 0.52647
307.00 0.53954
307.50 0.55336
308.00 0.56710
308.50 0.58075
309.00 0.59204
309.50 0.59922
310.00 0.60983
310.50 0.62174
311.00 0.63438
311.50 0.64668
312.00 0.65840
312.50 0.67085
313.00 0.68531
313.50 0.69900
314.00 0.71382
314.50 0.72972
315.00 0.74563
315.50 0.76277
316.00 0.77999
316.50 0.79759
317.00 0.81574
317.50 0.83397
318.00 0.85309
318.50 0.87236
319.00 0.89168
319.50 0.91130
320.00 0.93157
320.50 0.95197
321.00 0.97242
321.50 0.99291
322.00 1.01282
322.50 1.03272
323.00 1.05351
323.50 1.07460
324.00 1.09420
324.50 1.11100
325.00 1.12835
325.50 1.14648
326.00 1.16463
326.50 1.18281
327.00 1.19933
327.50 1.21337
328.00 1.22747
328.50 1.24340
329.00 1.25938
329.50 1.27541
330.00 1.29149
330.50 1.30664
331.00 1.32142
331.50 1.33737
332.00 1.35292
332.50 1.36816
333.00 1.38345
333.50 1.39879
334.00 1.41381
334.50 1.42859
335.00 1.44341
335.50 1.45533
336.00 1.46609
336.50 1.47686
337.00 1.48518
337.50 1.49117
338.00 1.49721
338.50 1.50221
339.00 1.50701
339.50 1.51185
340.00 1.51652
340.50 1.51807
341.00 1.51949
341.50 1.52055
342.00 1.52285
342.50 1.52576
343.00 1.52877
343.50 1.53187
344.00 1.53394
344.50 1.53607
345.00 1.53811
345.50 1.53981
346.00 1.54160
346.50 1.54349
347.00 1.54487
347.50 1.54624
348.00 1.54720
348.50 1.54668
349.00 1.54626
349.50 1.54592
350.00 1.54507
350.50 1.54333
351.00 1.54091
351.50 1.53848
352.00 1.53746
352.50 1.53656
353.00 1.53578
353.50 1.53503
354.00 1.53410
354.50 1.53329
355.00 1.53272
355.50 1.53248
356.00 1.53237
356.50 1.53248
357.00 1.53272
357.50 1.53308
358.00 1.53357
358.50 1.53399
359.00 1.53442
359.50 1.53496
360.00 1.53562
