phi[deg] B[T]
0.00 1.69526
0.50 1.69458
1.00 1.69401
1.50 1.69358
2.00 1.69299
2.50 1.69261
3.00 1.69237
3.50 1.69198
4.00 1.69150
4.50 1.69171
5.00 1.69212
5.50 1.69291
6.00 1.69415
6.50 1.69553
7.00 1.69661
7.50 1.69778
8.00 1.69966
8.50 1.70243
9.00 1.70533
9.50 1.70722
10.00 1.70801
10.50 1.70893
11.00 1.71047
11.50 1.71213
12.00 1.71353
12.50 1.71200
13.00 1.71057
13.50 1.70916
14.00 1.70717
14.50 1.70508
15.00 1.70226
15.50 1.69956
16.00 1.69703
16.50 1.69460
17.00 1.69225
17.50 1.68997
18.00 1.68779
18.50 1.68572
19.00 1.68327
19.50 1.67903
20.00 1.67358
20.50 1.67088
21.00 1.66822
21.50 1.66563
22.00 1.65960
22.50 1.64953
23.00 1.63949
23.50 1.63057
24.00 1.62327
24.50 1.60725
25.00 1.58963
25.50 1.57408
26.00 1.55858
26.50 1.54312
27.00 1.52542
27.50 1.50657
28.00 1.48784
28.50 1.46999
29.00 1.45221
29.50 1.43489
30.00 1.41780
30.50 1.40078
31.00 1.38362
31.50 1.36582
32.00 1.34631
32.50 1.32922
33.00 1.31257
33.50 1.29596
34.00 1.27714
34.50 1.25658
35.00 1.23637
35.50 1.21667
36.00 1.19556
36.50 1.17257
37.00 1.14960
37.50 1.12593
38.00 1.10323
38.50 1.08064
39.00 1.05809
39.50 1.03509
40.00 1.01342
40.50 0.99207
41.00 0.97078
41.50 0.94974
42.00 0.92997
42.50 0.91034
43.00 0.89111
43.50 0.87287
44.00 0.85445
44.50 0.83678
45.00 0.81956
45.50 0.80326
46.00 0.78663
46.50 0.77098
47.00 0.75557
47.50 0.74094
48.00 0.72583
48.50 0.71259
49.00 0.69886
49.50 0.68353
50.00 0.66884
50.50 0.65724
51.00 0.64548
51.50 0.62966
52.00 0.61263
52.50 0.59554
53.00 0.58068
53.50 0.56758
54.00 0.55252
54.50 0.53223
55.00 0.51177
55.50 0.49116
56.00 0.47048
56.50 0.45006
57.00 0.42949
57.50 0.40500
58.00 0.37905
58.50 0.35292
59.00 0.32330
59.50 0.29179
60.00 0.26091
60.50 0.23846
61.00 0.21592
61.50 0.19329
62.00 0.16647
62.50 0.13929
63.00 0.12194
63.50 0.10472
64.00 0.09149
64.50 0.07834
65.00 0.06717
65.50 0.05891
66.00 0.05063
66.50 0.04233
67.00 0.03558
67.50 0.03158
68.00 0.02756
68.50 0.02348
69.00 0.01941
69.50 0.01709
70.00 0.01498
70.50 0.01282
71.00 0.01065
71.50 0.00918
72.00 0.00804
72.50 0.00690
73.00 0.00576
73.50 0.00496
74.00 0.00435
74.50 0.00377
75.00 0.00320
75.50 0.00270
76.00 0.00239
76.50 0.00207
77.00 0.00180
77.50 0.00156
78.00 0.00133
78.50 0.00118
79.00 0.00104
79.50 0.00090
80.00 0.00080
80.50 0.00070
81.00 0.00064
81.50 0.00057
82.00 0.00051
82.50 0.00045
83.00 0.00041
83.50 0.00037
84.00 0.00034
84.50 0.00030
85.00 0.00026
85.50 0.00024
86.00 0.00021
86.50 0.00018
87.00 0.00016
87.50 0.00013
88.00 0.00011
88.50 0.00009
89.00 0.00008
89.50 0.00006
90.00 0.00005
90.00 0.00005
90.50 0.00006
91.00 0.00008
91.50 0.00009
92.00 0.00011
92.50 0.00013
93.00 0.00016
93.50 0.00018
94.00 0.00021
94.50 0.00024
95.00 0.00026
95.50 0.00030
96.00 0.00034
96.50 0.00037
97.00 0.00041
97.50 0.00045
98.00 0.00051
98.50 0.00057
99.00 0.00064
99.50 0.00070
100.00 0.00080
100.50 0.00090
101.00 0.00104
101.50 0.00118
102.00 0.00133
102.50 0.00156
103.00 0.00180
103.50 0.00207
104.00 0.00239
104.50 0.00270
105.00 0.00320
105.50 0.00377
106.00 0.00435
106.50 0.00496
107.00 0.00576
107.50 0.00690
108.00 0.00804
108.50 0.00918
109.00 0.01065
109.50 0.01282
110.00 0.01498
110.50 0.01709
111.00 0.01941
111.50 0.02348
112.00 0.02756
112.50 0.03158
113.00 0.03558
113.50 0.04233
114.00 0.05063
114.50 0.05891
115.00 0.06717
115.50 0.07834
116.00 0.09149
116.50 0.10472
117.00 0.12194
117.50 0.13929
118.00 0.16647
118.50 0.19329
119.00 0.21592
119.50 0.23846
120.00 0.26091
120.50 0.29179
121.00 0.32330
121.50 0.35292
122.00 0.37905
122.50 0.40500
123.00 0.42949
123.50 0.45006
124.00 0.47048
124.50 0.49116
125.00 0.51177
125.50 0.53223
126.00 0.55252
126.50 0.56758
127.00 0.58068
127.50 0.59554
128.00 0.61263
128.50 0.62966
129.00 0.64548
129.50 0.65724
130.00 0.66884
130.50 0.68353
131.00 0.69886
131.50 0.71259
132.00 0.72583
132.50 0.74094
133.00 0.75557
133.50 0.77098
134.00 0.78663
134.50 0.80326
135.00 0.81956
135.50 0.83678
136.00 0.85445
136.50 0.87287
137.00 0.89111
137.50 0.91034
138.00 0.92997
138.50 0.94974
139.00 0.97078
139.50 0.99207
140.00 1.01342
140.50 1.03509
141.00 1.05809
141.50 1.08064
142.00 1.10323
142.50 1.12593
143.00 1.14960
143.50 1.17257
144.00 1.19556
144.50 1.21667
145.00 1.23637
145.50 1.25658
146.00 1.27714
146.50 1.29596
147.00 1.31257
147.50 1.32922
148.00 1.34631
148.50 1.36582
149.00 1.38362
149.50 1.40078
150.00 1.41780
150.50 1.43489
151.00 1.45221
151.50 1.46999
152.00 1.48784
152.50 1.50657
153.00 1.52542
153.50 1.54312
154.00 1.55858
154.50 1.57408
155.00 1.58963
155.50 1.60725
156.00 1.62327
156.50 1.63057
157.00 1.63949
157.50 1.64953
158.00 1.65960
158.50 1.66563
159.00 1.66822
159.50 1.67088
160.00 1.67358
160.50 1.67903
161.00 1.68327
161.50 1.68572
162.00 1.68779
162.50 1.68997
163.00 1.69225
163.50 1.69460
164.00 1.69703
164.50 1.69956
165.00 1.70226
165.50 1.70508
166.00 1.70717
166.50 1.70916
167.00 1.71057
167.50 1.71200
168.00 1.71353
168.50 1.71213
169.00 1.71047
169.50 1.70893
170.00 1.70801
170.50 1.70722
171.00 1.70533
171.50 1.70243
172.00 1.69966
172.50 1.69778
173.00 1.69661
173.50 1.69553
174.00 1.69415
174.50 1.69291
175.00 1.69212
175.50 1.69171
176.00 1.69150
176.50 1.69198
177.00 1.69237
177.50 1.69261
178.00 1.69299
178.50 1.69358
179.00 1.69401
179.50 1.69458
180.00 1.69526
180.00 1.69526
180.50 1.69458
181.00 1.69401
181.50 1.69358
182.00 1.69299
182.50 1.69261
183.00 1.69237
183.50 1.69198
184.00 1.69150
184.50 1.69171
185.00 1.69212
185.50 1.69291
186.00 1.69415
186.50 1.69553
187.00 1.69661
187.50 1.69778
188.00 1.69966
188.50 1.70243
189.00 1.70533
189.50 1.70722
190.00 1.70801
190.50 1.70893
191.00 1.71047
191.50 1.71213
192.00 1.71353
192.50 1.71200
193.00 1.71057
193.50 1.70916
194.00 1.70717
194.50 1.70508
195.00 1.70226
195.50 1.69956
196.00 1.69703
196.50 1.69460
197.00 1.69225
197.50 1.68997
198.00 1.68779
198.50 1.68572
199.00 1.68327
199.50 1.67903
200.00 1.67358
200.50 1.67088
201.00 1.66822
201.50 1.66563
202.00 1.65960
202.50 1.64953
203.00 1.63949
203.50 1.63057
204.00 1.62327
204.50 1.60725
205.00 1.58963
205.50 1.57408
206.00 1.55858
206.50 1.54312
207.00 1.52542
207.50 1.50657
208.00 1.48784
208.50 1.46999
209.00 1.45221
209.50 1.43489
210.00 1.41780
210.50 1.40078
211.00 1.38362
211.50 1.36582
212.00 1.34631
212.50 1.32922
213.00 1.31257
213.50 1.29596
214.00 1.27714
214.50 1.25658
215.00 1.23637
215.50 1.21667
216.00 1.19556
216.50 1.17257
217.00 1.14960
217.50 1.12593
218.00 1.10323
218.50 1.08064
219.00 1.05809
219.50 1.03509
220.00 1.01342
220.50 0.99207
221.00 0.97078
221.50 0.94974
222.00 0.92997
222.50 0.91034
223.00 0.89111
223.50 0.87287
224.00 0.85445
224.50 0.83678
225.00 0.81956
225.50 0.80326
226.00 0.78663
226.50 0.77098
227.00 0.75557
227.50 0.74094
228.00 0.72583
228.50 0.71259
229.00 0.69886
229.50 0.68353
230.00 0.66884
230.50 0.65724
231.00 0.64548
231.50 0.62966
232.00 0.61263
232.50 0.59554
233.00 0.58068
233.50 0.56758
234.00 0.55252
234.50 0.53223
235.00 0.51177
235.50 0.49116
236.00 0.47048
236.50 0.45006
237.00 0.42949
237.50 0.40500
238.00 0.37905
238.50 0.35292
239.00 0.32330
239.50 0.29179
240.00 0.26091
240.50 0.23846
241.00 0.21592
241.50 0.19329
242.00 0.16647
242.50 0.13929
243.00 0.12194
243.50 0.10472
244.00 0.09149
244.50 0.07834
245.00 0.06717
245.50 0.05891
246.00 0.05063
246.50 0.04233
247.00 0.03558
247.50 0.03158
248.00 0.02756
248.50 0.02348
249.00 0.01941
249.50 0.01709
250.00 0.01498
250.50 0.01282
251.00 0.01065
251.50 0.00918
252.00 0.00804
252.50 0.00690
253.00 0.00576
253.50 0.00496
254.00 0.00435
254.50 0.00377
255.00 0.00320
255.50 0.00270
256.00 0.00239
256.50 0.00207
257.00 0.00180
257.50 0.00156
258.00 0.00133
258.50 0.00118
259.00 0.00104
259.50 0.00090
260.00 0.00080
260.50 0.00070
261.00 0.00064
261.50 0.00057
262.00 0.00051
262.50 0.00045
263.00 0.00041
263.50 0.00037
264.00 0.00034
264.50 0.00030
265.00 0.00026
265.50 0.00024
266.00 0.00021
266.50 0.00018
267.00 0.00016
267.50 0.00013
268.00 0.00011
268.50 0.00009
269.00 0.00008
269.50 0.00006
270.00 0.00005
270.00 0.00005
270.50 0.00006
271.00 0.00008
271.50 0.00009
272.00 0.00011
272.50 0.00013
273.00 0.00016
273.50 0.00018
274.00 0.00021
274.50 0.00024
275.00 0.00026
275.50 0.00030
276.00 0.00034
276.50 0.00037
277.00 0.00041
277.50 0.00045
278.00 0.00051
278.50 0.00057
279.00 0.00064
279.50 0.00070
280.00 0.00080
280.50 0.00090
281.00 0.00104
281.50 0.00118
282.00 0.00133
282.50 0.00156
283.00 0.00180
283.50 0.00207
284.00 0.00239
284.50 0.00270
285.00 0.00320
285.50 0.00377
286.00 0.00435
286.50 0.00496
287.00 0.00576
287.50 0.00690
288.00 0.00804
288.50 0.00918
289.00 0.01065
289.50 0.01282
290.00 0.01498
290.50 0.01709
291.00 0.01941
291.50 0.02348
292.00 0.02756
292.50 0.03158
293.00 0.03558
293.50 0.04233
294.00 0.05063
294.50 0.05891
295.00 0.06717
295.50 0.07834
296.00 0.09149
296.50 0.10472
297.00 0.12194
297.50 0.13929
298.00 0.16647
298.50 0.19329
299.00 0.21592
299.50 0.23846
300.00 0.26091
300.50 0.29179
301.00 0.32330
301.50 0.35292
302.00 0.37905
302.50 0.40500
303.00 0.42949
303.50 0.45006
304.00 0.47048
304.50 0.49116
305.00 0.51177
305.50 0.53223
306.00 0.55252
306.50 0.56758
307.00 0.58068
307.50 0.59554
308.00 0.61263
308.50 0.62966
309.00 0.64548
309.50 0.65724
310.00 0.66884
310.50 0.68353
311.00 0.69886
311.50 0.71259
312.00 0.72583
312.50 0.74094
313.00 0.75557
313.50 0.77098
314.00 0.78663
314.50 0.80326
315.00 0.81956
315.50 0.83678
316.00 0.85445
316.50 0.87287
317.00 0.89111
317.50 0.91034
318.00 0.92997
318.50 0.94974
319.00 0.97078
319.50 0.99207
320.00 1.01342
320.50 1.03509
321.00 1.05809
321.50 1.08064
322.00 1.10323
322.50 1.12593
323.00 1.14960
323.50 1.17257
324.00 1.19556
324.50 1.21667
325.00 1.23637
325.50 1.25658
326.00 1.27714
326.50 1.29596
327.00 1.31257
327.50 1.32922
328.00 1.34631
328.50 1.36582
329.00 1.38362
329.50 1.40078
330.00 1.41780
330.50 1.43489
331.00 1.45221
331.50 1.46999
332.00 1.48784
332.50 1.50657
333.00 1.52542
333.50 1.54312
334.00 1.55858
334.50 1.57408
335.00 1.58963
335.50 1.60725
336.00 1.62327
336.50 1.63057
337.00 1.63949
337.50 1.64953
338.00 1.65960
338.50 1.66563
339.00 1.66822
339.50 1.67088
340.00 1.67358
340.50 1.67903
341.00 1.68327
341.50 1.68572
342.00 1.68779
342.50 1.68997
343.00 1.69225
343.50 1.69460
344.00 1.69703
344.50 1.69956
345.00 1.70226
345.50 1.70508
346.00 1.70717
346.50 1.70916
347.00 1.71057
347.50 1.71200
348.00 1.71353
348.50 1.71213
349.00 1.71047
349.50 1.70893
350.00 1.70801
350.50 1.70722
351.00 1.70533
351.50 1.70243
352.00 1.69966
352.50 1.69778
353.00 1.69661
353.50 1.69553
354.00 1.69415
354.50 1.69291
355.00 1.69212
355.50 1.69171
356.00 1.69150
356.50 1.69198
357.00 1.69237
357.50 1.69261
358.00 1.69299
358.50 1.69358
359.00 1.69401
359.50 1.69458
360.00 1.69526
