phi[deg] B[T]
0.00 1.38468
0.50 1.38392
1.00 1.38327
1.50 1.38271
2.00 1.38191
2.50 1.38131
3.00 1.38082
3.50 1.38009
4.00 1.37922
4.50 1.37916
5.00 1.37927
5.50 1.37974
6.00 1.38061
6.50 1.38161
7.00 1.38245
7.50 1.38338
8.00 1.38500
8.50 1.38747
9.00 1.39004
9.50 1.39172
10.00 1.39244
10.50 1.39325
11.00 1.39464
11.50 1.39613
12.00 1.39738
12.50 1.39609
13.00 1.39487
13.50 1.39363
14.00 1.39171
14.50 1.38973
15.00 1.38727
15.50 1.38494
16.00 1.38290
16.50 1.38095
17.00 1.37917
17.50 1.37760
18.00 1.37612
18.50 1.37472
19.00 1.37300
19.50 1.36990
20.00 1.36600
20.50 1.36444
21.00 1.36292
21.50 1.36145
22.00 1.35711
22.50 1.34938
23.00 1.34168
23.50 1.33500
24.00 1.32980
24.50 1.31695
25.00 1.30269
25.50 1.29023
26.00 1.27781
26.50 1.26542
27.00 1.25100
27.50 1.23555
28.00 1.22020
28.50 1.20575
29.00 1.19136
29.50 1.17738
30.00 1.16359
30.50 1.14987
31.00 1.13602
31.50 1.12166
32.00 1.10599
32.50 1.09242
33.00 1.07923
33.50 1.06606
34.00 1.05099
34.50 1.03440
35.00 1.01829
35.50 1.00286
36.00 0.98595
36.50 0.96705
37.00 0.94818
37.50 0.92888
38.00 0.90981
38.50 0.89079
39.00 0.87179
39.50 0.85232
40.00 0.83316
40.50 0.81445
41.00 0.79586
41.50 0.77736
42.00 0.75927
42.50 0.74156
43.00 0.72400
43.50 0.70705
44.00 0.69023
44.50 0.67425
45.00 0.65829
45.50 0.64353
46.00 0.62893
46.50 0.61604
47.00 0.60304
47.50 0.59203
48.00 0.58091
48.50 0.57214
49.00 0.56393
49.50 0.55436
50.00 0.54533
50.50 0.54037
51.00 0.53577
51.50 0.52685
52.00 0.51613
52.50 0.50535
53.00 0.49767
53.50 0.49079
54.00 0.48186
54.50 0.46687
55.00 0.45155
55.50 0.43608
56.00 0.42043
56.50 0.40451
57.00 0.38843
57.50 0.36763
58.00 0.34559
58.50 0.32338
59.00 0.29722
59.50 0.26872
60.00 0.24024
60.50 0.21991
61.00 0.19949
61.50 0.17898
62.00 0.15417
62.50 0.12931
63.00 0.11309
63.50 0.09697
64.00 0.08479
64.50 0.07267
65.00 0.06235
65.50 0.05467
66.00 0.04698
66.50 0.03927
67.00 0.03301
67.50 0.02930
68.00 0.02557
68.50 0.02179
69.00 0.01800
69.50 0.01585
70.00 0.01390
70.50 0.01189
71.00 0.00988
71.50 0.00851
72.00 0.00745
72.50 0.00639
73.00 0.00533
73.50 0.00460
74.00 0.00402
74.50 0.00349
75.00 0.00296
75.50 0.00250
76.00 0.00220
76.50 0.00191
77.00 0.00166
77.50 0.00143
78.00 0.00122
78.50 0.00109
79.00 0.00096
79.50 0.00083
80.00 0.00073
80.50 0.00064
81.00 0.00058
81.50 0.00052
82.00 0.00046
82.50 0.00041
83.00 0.00037
83.50 0.00034
84.00 0.00031
84.50 0.00027
85.00 0.00024
85.50 0.00021
86.00 0.00019
86.50 0.00016
87.00 0.00014
87.50 0.00011
88.00 0.00009
88.50 0.00007
89.00 0.00006
89.50 0.00005
90.00 0.00004
90.00 0.00004
90.50 0.00005
91.00 0.00006
91.50 0.00007
92.00 0.00009
92.50 0.00011
93.00 0.00014
93.50 0.00016
94.00 0.00019
94.50 0.00021
95.00 0.00024
95.50 0.00027
96.00 0.00031
96.50 0.00034
97.00 0.00037
97.50 0.00041
98.00 0.00046
98.50 0.00052
99.00 0.00058
99.50 0.00064
100.00 0.00073
100.50 0.00083
101.00 0.00096
101.50 0.00109
102.00 0.00122
102.50 0.00143
103.00 0.00166
103.50 0.00191
104.00 0.00220
104.50 0.00250
105.00 0.00296
105.50 0.00349
106.00 0.00402
106.50 0.00460
107.00 0.00533
107.50 0.00639
108.00 0.00745
108.50 0.00851
109.00 0.00988
109.50 0.01189
110.00 0.01390
110.50 0.01585
111.00 0.01800
111.50 0.02179
112.00 0.02557
112.50 0.02930
113.00 0.03301
113.50 0.03927
114.00 0.04698
114.50 0.05467
115.00 0.06235
115.50 0.07267
116.00 0.08479
116.50 0.09697
117.00 0.11309
117.50 0.12931
118.00 0.15417
118.50 0.17898
119.00 0.19949
119.50 0.21991
120.00 0.24024
120.50 0.26872
121.00 0.29722
121.50 0.32338
122.00 0.34559
122.50 0.36763
123.00 0.38843
123.50 0.40451
124.00 0.42043
124.50 0.43608
125.00 0.45155
125.50 0.46687
126.00 0.48186
126.50 0.49079
127.00 0.49767
127.50 0.50535
128.00 0.51613
128.50 0.52685
129.00 0.53577
129.50 0.54037
130.00 0.54533
130.50 0.55436
131.00 0.56393
131.50 0.57214
132.00 0.58091
132.50 0.59203
133.00 0.60304
133.50 0.61604
134.00 0.62893
134.50 0.64353
135.00 0.65829
135.50 0.67425
136.00 0.69023
136.50 0.70705
137.00 0.72400
137.50 0.74156
138.00 0.75927
138.50 0.77736
139.00 0.79586
139.50 0.81445
140.00 0.83316
140.50 0.85232
141.00 0.87179
141.50 0.89079
142.00 0.90981
142.50 0.92888
143.00 0.94818
143.50 0.96705
144.00 0.98595
144.50 1.00286
145.00 1.01829
145.50 1.03440
146.00 1.05099
146.50 1.06606
147.00 1.07923
147.50 1.09242
148.00 1.10599
148.50 1.12166
149.00 1.13602
149.50 1.14987
150.00 1.16359
150.50 1.17738
151.00 1.19136
151.50 1.20575
152.00 1.22020
152.50 1.23555
153.00 1.25100
153.50 1.26542
154.00 1.27781
154.50 1.29023
155.00 1.30269
155.50 1.31695
156.00 1.32980
156.50 1.33500
157.00 1.34168
157.50 1.34938
158.00 1.35711
158.50 1.36145
159.00 1.36292
159.50 1.36444
160.00 1.36600
160.50 1.36990
161.00 1.37300
161.50 1.37472
162.00 1.37612
162.50 1.37760
163.00 1.37917
163.50 1.38095
164.00 1.38290
164.50 1.38494
165.00 1.38727
165.50 1.38973
166.00 1.39171
166.50 1.39363
167.00 1.39487
167.50 1.39609
168.00 1.39738
168.50 1.39613
169.00 1.39464
169.50 1.39325
170.00 1.39244
170.50 1.39172
171.00 1.39004
171.50 1.38747
172.00 1.38500
172.50 1.38338
173.00 1.38245
173.50 1.38161
174.00 1.38061
174.50 1.37974
175.00 1.37927
175.50 1.37916
176.00 1.37922
176.50 1.38009
177.00 1.38082
177.50 1.38131
178.00 1.38191
178.50 1.38271
179.00 1.38327
179.50 1.38392
180.00 1.38468
180.00 1.38468
180.50 1.38392
181.00 1.38327
181.50 1.38271
182.00 1.38191
182.50 1.38131
183.00 1.38082
183.50 1.38009
184.00 1.37922
184.50 1.37916
185.00 1.37927
185.50 1.37974
186.00 1.38061
186.50 1.38161
187.00 1.38245
187.50 1.38338
188.00 1.38500
188.50 1.38747
189.00 1.39004
189.50 1.39172
190.00 1.39244
190.50 1.39325
191.00 1.39464
191.50 1.39613
192.00 1.39738
192.50 1.39609
193.00 1.39487
193.50 1.39363
194.00 1.39171
194.50 1.38973
195.00 1.38727
195.50 1.38494
196.00 1.38290
196.50 1.38095
197.00 1.37917
197.50 1.37760
198.00 1.37612
198.50 1.37472
199.00 1.37300
199.50 1.36990
200.00 1.36600
200.50 1.36444
201.00 1.36292
201.50 1.36145
202.00 1.35711
202.50 1.34938
203.00 1.34168
203.50 1.33500
204.00 1.32980
204.50 1.31695
205.00 1.30269
205.50 1.29023
206.00 1.27781
206.50 1.26542
207.00 1.25100
207.50 1.23555
208.00 1.22020
208.50 1.20575
209.00 1.19136
209.50 1.17738
210.00 1.16359
210.50 1.14987
211.00 1.13602
211.50 1.12166
212.00 1.10599
212.50 1.09242
213.00 1.07923
213.50 1.06606
214.00 1.05099
214.50 1.03440
215.00 1.01829
215.50 1.00286
216.00 0.98595
216.50 0.96705
217.00 0.94818
217.50 0.92888
218.00 0.90981
218.50 0.89079
219.00 0.87179
219.50 0.85232
220.00 0.83316
220.50 0.81445
221.00 0.79586
221.50 0.77736
222.00 0.75927
222.50 0.74156
223.00 0.72400
223.50 0.70705
224.00 0.69023
224.50 0.67425
225.00 0.65829
225.50 0.64353
226.00 0.62893
226.50 0.61604
227.00 0.60304
227.50 0.59203
228.00 0.58091
228.50 0.57214
229.00 0.56393
229.50 0.55436
230.00 0.54533
230.50 0.54037
231.00 0.53577
231.50 0.52685
232.00 0.51613
232.50 0.50535
233.00 0.49767
233.50 0.49079
234.00 0.48186
234.50 0.46687
235.00 0.45155
235.50 0.43608
236.00 0.42043
236.50 0.40451
237.00 0.38843
237.50 0.36763
238.00 0.34559
238.50 0.32338
239.00 0.29722
239.50 0.26872
240.00 0.24024
240.50 0.21991
241.00 0.19949
241.50 0.17898
242.00 0.15417
242.50 0.12931
243.00 0.11309
243.50 0.09697
244.00 0.08479
244.50 0.07267
245.00 0.06235
245.50 0.05467
246.00 0.04698
246.50 0.03927
247.00 0.03301
247.50 0.02930
248.00 0.02557
248.50 0.02179
249.00 0.01800
249.50 0.01585
250.00 0.01390
250.50 0.01189
251.00 0.00988
251.50 0.00851
252.00 0.00745
252.50 0.00639
253.00 0.00533
253.50 0.00460
254.00 0.00402
254.50 0.00349
255.00 0.00296
255.50 0.00250
256.00 0.00220
256.50 0.00191
257.00 0.00166
257.50 0.00143
258.00 0.00122
258.50 0.00109
259.00 0.00096
259.50 0.00083
260.00 0.00073
260.50 0.00064
261.00 0.00058
261.50 0.00052
262.00 0.00046
262.50 0.00041
263.00 0.00037
263.50 0.00034
264.00 0.00031
264.50 0.00027
265.00 0.00024
265.50 0.00021
266.00 0.00019
266.50 0.00016
267.00 0.00014
267.50 0.00011
268.00 0.00009
268.50 0.00007
269.00 0.00006
269.50 0.00005
270.00 0.00004
270.00 0.00004
270.50 0.00005
271.00 0.00006
271.50 0.00007
272.00 0.00009
272.50 0.00011
273.00 0.00014
273.50 0.00016
274.00 0.00019
274.50 0.00021
275.00 0.00024
275.50 0.00027
276.00 0.00031
276.50 0.00034
277.00 0.00037
277.50 0.00041
278.00 0.00046
278.50 0.00052
279.00 0.00058
279.50 0.00064
280.00 0.00073
280.50 0.00083
281.00 0.00096
281.50 0.00109
282.00 0.00122
282.50 0.00143
283.00 0.00166
283.50 0.00191
284.00 0.00220
284.50 0.00250
285.00 0.00296
285.50 0.00349
286.00 0.00402
286.50 0.00460
287.00 0.00533
287.50 0.00639
288.00 0.00745
288.50 0.00851
289.00 0.00988
289.50 0.01189
290.00 0.01390
290.50 0.01585
291.00 0.01800
291.50 0.02179
292.00 0.02557
292.50 0.02930
293.00 0.03301
293.50 0.03927
294.00 0.04698
294.50 0.05467
295.00 0.06235
295.50 0.07267
296.00 0.08479
296.50 0.09697
297.00 0.11309
297.50 0.12931
298.00 0.15417
298.50 0.17898
299.00 0.19949
299.50 0.21991
300.00 0.24024
300.50 0.26872
301.00 0.29722
301.50 0.32338
302.00 0.34559
302.50 0.36763
303.00 0.38843
303.50 0.40451
304.00 0.42043
304.50 0.43608
305.00 0.45155
305.50 0.46687
306.00 0.48186
306.50 0.49079
307.00 0.49767
307.50 0.50535
308.00 0.51613
308.50 0.52685
309.00 0.53577
309.50 0.54037
310.00 0.54533
310.50 0.55436
311.00 0.56393
311.50 0.57214
312.00 0.58091
312.50 0.59203
313.00 0.60304
313.50 0.61604
314.00 0.62893
314.50 0.64353
315.00 0.65829
315.50 0.67425
316.00 0.69023
316.50 0.70705
317.00 0.72400
317.50 0.74156
318.00 0.75927
318.50 0.77736
319.00 0.79586
319.50 0.81445
320.00 0.83316
320.50 0.85232
321.00 0.87179
321.50 0.89079
322.00 0.90981
322.50 0.92888
323.00 0.94818
323.50 0.96705
324.00 0.98595
324.50 1.00286
325.00 1.01829
325.50 1.03440
326.00 1.05099
326.50 1.06606
327.00 1.07923
327.50 1.09242
328.00 1.10599
328.50 1.12166
329.00 1.13602
329.50 1.14987
330.00 1.16359
330.50 1.17738
331.00 1.19136
331.50 1.20575
332.00 1.22020
332.50 1.23555
333.00 1.25100
333.50 1.26542
334.00 1.27781
334.50 1.29023
335.00 1.30269
335.50 1.31695
336.00 1.32980
336.50 1.33500
337.00 1.34168
337.50 1.34938
338.00 1.35711
338.50 1.36145
339.00 1.36292
339.50 1.36444
340.00 1.36600
340.50 1.36990
341.00 1.37300
341.50 1.37472
342.00 1.37612
342.50 1.37760
343.00 1.37917
343.50 1.38095
344.00 1.38290
344.50 1.38494
345.00 1.38727
345.50 1.38973
346.00 1.39171
346.50 1.39363
347.00 1.39487
347.50 1.39609
348.00 1.39738
348.50 1.39613
349.00 1.39464
349.50 1.39325
350.00 1.39244
350.50 1.39172
351.00 1.39004
351.50 1.38747
352.00 1.38500
352.50 1.38338
353.00 1.38245
353.50 1.38161
354.00 1.38061
354.50 1.37974
355.00 1.37927
355.50 1.37916
356.00 1.37922
356.50 1.38009
357.00 1.38082
357.50 1.38131
358.00 1.38191
358.50 1.38271
359.00 1.38327
359.50 1.38392
360.00 1.38468
