phi[deg] B[T]
0.00 1.97991
0.50 1.97978
1.00 1.97980
1.50 1.97997
2.00 1.98029
2.50 1.98084
3.00 1.98096
3.50 1.98187
4.00 1.98293
4.50 1.98412
5.00 1.98545
5.50 1.98692
6.00 1.98858
6.50 1.99038
7.00 1.99232
7.50 1.99289
8.00 1.99345
8.50 1.99446
9.00 1.99600
9.50 1.99767
10.00 1.99947
10.50 1.99885
11.00 1.99749
11.50 1.99681
12.00 1.99656
12.50 1.99642
13.00 1.99639
13.50 1.99623
14.00 1.99471
14.50 1.99234
15.00 1.98752
15.50 1.98339
16.00 1.98103
16.50 1.97875
17.00 1.97654
17.50 1.97329
18.00 1.96671
18.50 1.96019
19.00 1.95399
19.50 1.95012
20.00 1.94629
20.50 1.94072
21.00 1.93247
21.50 1.92425
22.00 1.91487
22.50 1.90404
23.00 1.89323
23.50 1.88244
24.00 1.86864
24.50 1.85416
25.00 1.83971
25.50 1.82513
26.00 1.80786
26.50 1.79104
27.00 1.77439
27.50 1.75774
28.00 1.74014
28.50 1.72130
29.00 1.70231
29.50 1.68229
30.00 1.66228
30.50 1.64229
31.00 1.62040
31.50 1.59749
32.00 1.57674
32.50 1.55598
33.00 1.53522
33.50 1.51320
34.00 1.48953
34.50 1.46586
35.00 1.44134
35.50 1.41591
36.00 1.39048
36.50 1.36506
37.00 1.33937
37.50 1.31308
38.00 1.28733
38.50 1.26159
39.00 1.23584
39.50 1.20994
40.00 1.18395
40.50 1.15897
41.00 1.13399
41.50 1.10900
42.00 1.08375
42.50 1.05950
43.00 1.03592
43.50 1.01245
44.00 0.98929
44.50 0.96614
45.00 0.94276
45.50 0.92037
46.00 0.89850
46.50 0.87660
47.00 0.85551
47.50 0.83509
48.00 0.81360
48.50 0.79130
49.00 0.77118
49.50 0.75137
50.00 0.73121
50.50 0.70987
51.00 0.69072
51.50 0.67152
52.00 0.65227
52.50 0.63285
53.00 0.61051
53.50 0.58992
54.00 0.57008
54.50 0.55017
55.00 0.53019
55.50 0.50993
56.00 0.48779
56.50 0.46774
57.00 0.44761
57.50 0.42739
58.00 0.40716
58.50 0.38771
59.00 0.36818
59.50 0.34669
60.00 0.32512
60.50 0.30348
61.00 0.28179
61.50 0.26052
62.00 0.24471
62.50 0.22906
63.00 0.21336
63.50 0.19761
64.00 0.18181
64.50 0.16524
65.00 0.15436
65.50 0.14369
66.00 0.13301
66.50 0.12227
67.00 0.11141
67.50 0.10055
68.00 0.09190
68.50 0.08591
69.00 0.07992
69.50 0.07392
70.00 0.06782
70.50 0.06170
71.00 0.05558
71.50 0.04983
72.00 0.04627
72.50 0.04295
73.00 0.03963
73.50 0.03631
74.00 0.03300
74.50 0.02969
75.00 0.02731
75.50 0.02548
76.00 0.02365
76.50 0.02182
77.00 0.01999
77.50 0.01809
78.00 0.01620
78.50 0.01497
79.00 0.01399
79.50 0.01301
80.00 0.01203
80.50 0.01105
81.00 0.01008
81.50 0.00912
82.00 0.00844
82.50 0.00788
83.00 0.00735
83.50 0.00682
84.00 0.00629
84.50 0.00581
85.00 0.00553
85.50 0.00525
86.00 0.00497
86.50 0.00469
87.00 0.00439
87.50 0.00429
88.00 0.00418
88.50 0.00406
89.00 0.00394
89.50 0.00382
90.00 0.00371
90.00 0.00371
90.50 0.00382
91.00 0.00394
91.50 0.00406
92.00 0.00418
92.50 0.00429
93.00 0.00439
93.50 0.00469
94.00 0.00497
94.50 0.00525
95.00 0.00553
95.50 0.00581
96.00 0.00629
96.50 0.00682
97.00 0.00735
97.50 0.00788
98.00 0.00844
98.50 0.00912
99.00 0.01008
99.50 0.01105
100.00 0.01203
100.50 0.01301
101.00 0.01399
101.50 0.01497
102.00 0.01620
102.50 0.01809
103.00 0.01999
103.50 0.02182
104.00 0.02365
104.50 0.02548
105.00 0.02731
105.50 0.02969
106.00 0.03300
106.50 0.03631
107.00 0.03963
107.50 0.04295
108.00 0.04627
108.50 0.04983
109.00 0.05558
109.50 0.06170
110.00 0.06782
110.50 0.07392
111.00 0.07992
111.50 0.08591
112.00 0.09190
112.50 0.10055
113.00 0.11141
113.50 0.12227
114.00 0.13301
114.50 0.14369
115.00 0.15436
115.50 0.16524
116.00 0.18181
116.50 0.19761
117.00 0.21336
117.50 0.22906
118.00 0.24471
118.50 0.26052
119.00 0.28179
119.50 0.30348
120.00 0.32512
120.50 0.34669
121.00 0.36818
121.50 0.38771
122.00 0.40716
122.50 0.42739
123.00 0.44761
123.50 0.46774
124.00 0.48779
124.50 0.50993
125.00 0.53019
125.50 0.55017
126.00 0.57008
126.50 0.58992
127.00 0.61051
127.50 0.63285
128.00 0.65227
128.50 0.67152
129.00 0.69072
129.50 0.70987
130.00 0.73121
130.50 0.75137
131.00 0.77118
131.50 0.79130
132.00 0.81360
132.50 0.83509
133.00 0.85551
133.50 0.87660
134.00 0.89850
134.50 0.92037
135.00 0.94276
135.50 0.96614
136.00 0.98929
136.50 1.01245
137.00 1.03592
137.50 1.05950
138.00 1.08375
138.50 1.10900
139.00 1.13399
139.50 1.15897
140.00 1.18395
140.50 1.20994
141.00 1.23584
141.50 1.26159
142.00 1.28733
142.50 1.31308
143.00 1.33937
143.50 1.36506
144.00 1.39048
144.50 1.41591
145.00 1.44134
145.50 1.46586
146.00 1.48953
146.50 1.51320
147.00 1.53522
147.50 1.55598
148.00 1.57674
148.50 1.59749
149.00 1.62040
149.50 1.64229
150.00 1.66228
150.50 1.68229
151.00 1.70231
151.50 1.72130
152.00 1.74014
152.50 1.75774
153.00 1.77439
153.50 1.79104
154.00 1.80786
154.50 1.82513
155.00 1.83971
155.50 1.85416
156.00 1.86864
156.50 1.88244
157.00 1.89323
157.50 1.90404
158.00 1.91487
158.50 1.92425
159.00 1.93247
159.50 1.94072
160.00 1.94629
160.50 1.95012
161.00 1.95399
161.50 1.96019
162.00 1.96671
162.50 1.97329
163.00 1.97654
163.50 1.97875
164.00 1.98103
164.50 1.98339
165.00 1.98752
165.50 1.99234
166.00 1.99471
166.50 1.99623
167.00 1.99639
167.50 1.99642
168.00 1.99656
168.50 1.99681
169.00 1.99749
169.50 1.99885
170.00 1.99947
170.50 1.99767
171.00 1.99600
171.50 1.99446
172.00 1.99345
172.50 1.99289
173.00 1.99232
173.50 1.99038
174.00 1.98858
174.50 1.98692
175.00 1.98545
175.50 1.98412
176.00 1.98293
176.50 1.98187
177.00 1.98096
177.50 1.98084
178.00 1.98029
178.50 1.97997
179.00 1.97980
179.50 1.97978
180.00 1.97991
180.00 1.97991
180.50 1.97978
181.00 1.97980
181.50 1.97997
182.00 1.98029
182.50 1.98084
183.00 1.98096
183.50 1.98187
184.00 1.98293
184.50 1.98412
185.00 1.98545
185.50 1.98692
186.00 1.98858
186.50 1.99038
187.00 1.99232
187.50 1.99289
188.00 1.99345
188.50 1.99446
189.00 1.99600
189.50 1.99767
190.00 1.99947
190.50 1.99885
191.00 1.99749
191.50 1.99681
192.00 1.99656
192.50 1.99642
193.00 1.99639
193.50 1.99623
194.00 1.99471
194.50 1.99234
195.00 1.98752
195.50 1.98339
196.00 1.98103
196.50 1.97875
197.00 1.97654
197.50 1.97329
198.00 1.96671
198.50 1.96019
199.00 1.95399
199.50 1.95012
200.00 1.94629
200.50 1.94072
201.00 1.93247
201.50 1.92425
202.00 1.91487
202.50 1.90404
203.00 1.89323
203.50 1.88244
204.00 1.86864
204.50 1.85416
205.00 1.83971
205.50 1.82513
206.00 1.80786
206.50 1.79104
207.00 1.77439
207.50 1.75774
208.00 1.74014
208.50 1.72130
209.00 1.70231
209.50 1.68229
210.00 1.66228
210.50 1.64229
211.00 1.62040
211.50 1.59749
212.00 1.57674
212.50 1.55598
213.00 1.53522
213.50 1.51320
214.00 1.48953
214.50 1.46586
215.00 1.44134
215.50 1.41591
216.00 1.39048
216.50 1.36506
217.00 1.33937
217.50 1.31308
218.00 1.28733
218.50 1.26159
219.00 1.23584
219.50 1.20994
220.00 1.18395
220.50 1.15897
221.00 1.13399
221.50 1.10900
222.00 1.08375
222.50 1.05950
223.00 1.03592
223.50 1.01245
224.00 0.98929
224.50 0.96614
225.00 0.94276
225.50 0.92037
226.00 0.89850
226.50 0.87660
227.00 0.85551
227.50 0.83509
228.00 0.81360
228.50 0.79130
229.00 0.77118
229.50 0.75137
230.00 0.73121
230.50 0.70987
231.00 0.69072
231.50 0.67152
232.00 0.65227
232.50 0.63285
233.00 0.61051
233.50 0.58992
234.00 0.57008
234.50 0.55017
235.00 0.53019
235.50 0.50993
236.00 0.48779
236.50 0.46774
237.00 0.44761
237.50 0.42739
238.00 0.40716
238.50 0.38771
239.00 0.36818
239.50 0.34669
240.00 0.32512
240.50 0.30348
241.00 0.28179
241.50 0.26052
242.00 0.24471
242.50 0.22906
243.00 0.21336
243.50 0.19761
244.00 0.18181
244.50 0.16524
245.00 0.15436
245.50 0.14369
246.00 0.13301
246.50 0.12227
247.00 0.11141
247.50 0.10055
248.00 0.09190
248.50 0.08591
249.00 0.07992
249.50 0.07392
250.00 0.06782
250.50 0.06170
251.00 0.05558
251.50 0.04983
252.00 0.04627
252.50 0.04295
253.00 0.03963
253.50 0.03631
254.00 0.03300
254.50 0.02969
255.00 0.02731
255.50 0.02548
256.00 0.02365
256.50 0.02182
257.00 0.01999
257.50 0.01809
258.00 0.01620
258.50 0.01497
259.00 0.01399
259.50 0.01301
260.00 0.01203
260.50 0.01105
261.00 0.01008
261.50 0.00912
262.00 0.00844
262.50 0.00788
263.00 0.00735
263.50 0.00682
264.00 0.00629
264.50 0.00581
265.00 0.00553
265.50 0.00525
266.00 0.00497
266.50 0.00469
267.00 0.00439
267.50 0.00429
268.00 0.00418
268.50 0.00406
269.00 0.00394
269.50 0.00382
270.00 0.00371
270.00 0.00371
270.50 0.00382
271.00 0.00394
271.50 0.00406
272.00 0.00418
272.50 0.00429
273.00 0.00439
273.50 0.00469
274.00 0.00497
274.50 0.00525
275.00 0.00553
275.50 0.00581
276.00 0.00629
276.50 0.00682
277.00 0.00735
277.50 0.00788
278.00 0.00844
278.50 0.00912
279.00 0.01008
279.50 0.01105
280.00 0.01203
280.50 0.01301
281.00 0.01399
281.50 0.01497
282.00 0.01620
282.50 0.01809
283.00 0.01999
283.50 0.02182
284.00 0.02365
284.50 0.02548
285.00 0.02731
285.50 0.02969
286.00 0.03300
286.50 0.03631
287.00 0.03963
287.50 0.04295
288.00 0.04627
288.50 0.04983
289.00 0.05558
289.50 0.06170
290.00 0.06782
290.50 0.07392
291.00 0.07992
291.50 0.08591
292.00 0.09190
292.50 0.10055
293.00 0.11141
293.50 0.12227
294.00 0.13301
294.50 0.14369
295.00 0.15436
295.50 0.16524
296.00 0.18181
296.50 0.19761
297.00 0.21336
297.50 0.22906
298.00 0.24471
298.50 0.26052
299.00 0.28179
299.50 0.30348
300.00 0.32512
300.50 0.34669
301.00 0.36818
301.50 0.38771
302.00 0.40716
302.50 0.42739
303.00 0.44761
303.50 0.46774
304.00 0.48779
304.50 0.50993
305.00 0.53019
305.50 0.55017
306.00 0.57008
306.50 0.58992
307.00 0.61051
307.50 0.63285
308.00 0.65227
308.50 0.67152
309.00 0.69072
309.50 0.70987
310.00 0.73121
310.50 0.75137
311.00 0.77118
311.50 0.79130
312.00 0.81360
312.50 0.83509
313.00 0.85551
313.50 0.87660
314.00 0.89850
314.50 0.92037
315.00 0.94276
315.50 0.96614
316.00 0.98929
316.50 1.01245
317.00 1.03592
317.50 1.05950
318.00 1.08375
318.50 1.10900
319.00 1.13399
319.50 1.15897
320.00 1.18395
320.50 1.20994
321.00 1.23584
321.50 1.26159
322.00 1.28733
322.50 1.31308
323.00 1.33937
323.50 1.36506
324.00 1.39048
324.50 1.41591
325.00 1.44134
325.50 1.46586
326.00 1.48953
326.50 1.51320
327.00 1.53522
327.50 1.55598
328.00 1.57674
328.50 1.59749
329.00 1.62040
329.50 1.64229
330.00 1.66228
330.50 1.68229
331.00 1.70231
331.50 1.72130
332.00 1.74014
332.50 1.75774
333.00 1.77439
333.50 1.79104
334.00 1.80786
334.50 1.82513
335.00 1.83971
335.50 1.85416
336.00 1.86864
336.50 1.88244
337.00 1.89323
337.50 1.90404
338.00 1.91487
338.50 1.92425
339.00 1.93247
339.50 1.94072
340.00 1.94629
340.50 1.95012
341.00 1.95399
341.50 1.96019
342.00 1.96671
342.50 1.97329
343.00 1.97654
343.50 1.97875
344.00 1.98103
344.50 1.98339
345.00 1.98752
345.50 1.99234
346.00 1.99471
346.50 1.99623
347.00 1.99639
347.50 1.99642
348.00 1.99656
348.50 1.99681
349.00 1.99749
349.50 1.99885
350.00 1.99947
350.50 1.99767
351.00 1.99600
351.50 1.99446
352.00 1.99345
352.50 1.99289
353.00 1.99232
353.50 1.99038
354.00 1.98858
354.50 1.98692
355.00 1.98545
355.50 1.98412
356.00 1.98293
356.50 1.98187
357.00 1.98096
357.50 1.98084
358.00 1.98029
358.50 1.97997
359.00 1.97980
359.50 1.97978
360.00 1.97991
