phi[deg] B[T]
0.00 1.12261
0.50 1.12209
1.00 1.12166
1.50 1.12171
2.00 1.12182
2.50 1.12145
3.00 1.12090
3.50 1.12045
4.00 1.12006
4.50 1.11960
5.00 1.11905
5.50 1.11858
6.00 1.11762
6.50 1.11650
7.00 1.11544
7.50 1.11447
8.00 1.11358
8.50 1.11276
9.00 1.11191
9.50 1.10991
10.00 1.10798
10.50 1.10612
11.00 1.10433
11.50 1.10260
12.00 1.10131
12.50 1.10026
13.00 1.09881
13.50 1.09685
14.00 1.09447
14.50 1.09157
15.00 1.08872
15.50 1.08594
16.00 1.08320
16.50 1.08053
17.00 1.07810
17.50 1.07611
18.00 1.07306
18.50 1.06915
19.00 1.06488
19.50 1.06065
20.00 1.05646
20.50 1.05232
21.00 1.04822
21.50 1.04435
22.00 1.04076
22.50 1.03647
23.00 1.03167
23.50 1.02565
24.00 1.01967
24.50 1.01372
25.00 1.00780
25.50 1.00192
26.00 0.99607
26.50 0.99068
27.00 0.98617
27.50 0.98189
28.00 0.97454
28.50 0.96718
29.00 0.95983
29.50 0.95248
30.00 0.94513
30.50 0.93778
31.00 0.93131
31.50 0.92784
32.00 0.92213
32.50 0.91603
33.00 0.90730
33.50 0.89702
34.00 0.88667
34.50 0.87624
35.00 0.86561
35.50 0.85483
36.00 0.84399
36.50 0.83178
37.00 0.81593
37.50 0.80308
38.00 0.79010
38.50 0.77478
39.00 0.75527
39.50 0.73563
40.00 0.71535
40.50 0.69316
41.00 0.67059
41.50 0.64788
42.00 0.62412
42.50 0.59761
43.00 0.57219
43.50 0.54648
44.00 0.51646
44.50 0.48627
45.00 0.45703
45.50 0.42911
46.00 0.40111
46.50 0.37299
47.00 0.34466
47.50 0.31615
48.00 0.28854
48.50 0.26616
49.00 0.24396
49.50 0.22173
50.00 0.19946
50.50 0.18277
51.00 0.16802
51.50 0.15282
52.00 0.13748
52.50 0.12213
53.00 0.10984
53.50 0.09951
54.00 0.08985
54.50 0.08312
55.00 0.07640
55.50 0.06969
56.00 0.06299
56.50 0.05630
57.00 0.04962
57.50 0.04334
58.00 0.03832
58.50 0.03355
59.00 0.03114
59.50 0.02872
60.00 0.02632
60.50 0.02393
61.00 0.02154
61.50 0.01915
62.00 0.01677
62.50 0.01474
63.00 0.01360
63.50 0.01245
64.00 0.01131
64.50 0.01016
65.00 0.00908
65.50 0.00809
66.00 0.00711
66.50 0.00651
67.00 0.00601
67.50 0.00552
68.00 0.00502
68.50 0.00452
69.00 0.00403
69.50 0.00353
70.00 0.00316
70.50 0.00293
71.00 0.00269
71.50 0.00246
72.00 0.00222
72.50 0.00199
73.00 0.00175
73.50 0.00154
74.00 0.00143
74.50 0.00132
75.00 0.00121
75.50 0.00110
76.00 0.00099
76.50 0.00088
77.00 0.00078
77.50 0.00072
78.00 0.00067
78.50 0.00061
79.00 0.00055
79.50 0.00050
80.00 0.00046
80.50 0.00042
81.00 0.00038
81.50 0.00035
82.00 0.00033
82.50 0.00030
83.00 0.00027
83.50 0.00025
84.00 0.00023
84.50 0.00021
85.00 0.00020
85.50 0.00019
86.00 0.00018
86.50 0.00017
87.00 0.00015
87.50 0.00014
88.00 0.00014
88.50 0.00013
89.00 0.00013
89.50 0.00012
90.00 0.00012
90.00 0.00012
90.50 0.00012
91.00 0.00013
91.50 0.00013
92.00 0.00014
92.50 0.00014
93.00 0.00015
93.50 0.00017
94.00 0.00018
94.50 0.00019
95.00 0.00020
95.50 0.00021
96.00 0.00023
96.50 0.00025
97.00 0.00027
97.50 0.00030
98.00 0.00033
98.50 0.00035
99.00 0.00038
99.50 0.00042
100.00 0.00046
100.50 0.00050
101.00 0.00055
101.50 0.00061
102.00 0.00067
102.50 0.00072
103.00 0.00078
103.50 0.00088
104.00 0.00099
104.50 0.00110
105.00 0.00121
105.50 0.00132
106.00 0.00143
106.50 0.00154
107.00 0.00175
107.50 0.00199
108.00 0.00222
108.50 0.00246
109.00 0.00269
109.50 0.00293
110.00 0.00316
110.50 0.00353
111.00 0.00403
111.50 0.00452
112.00 0.00502
112.50 0.00552
113.00 0.00601
113.50 0.00651
114.00 0.00711
114.50 0.00809
115.00 0.00908
115.50 0.01016
116.00 0.01131
116.50 0.01245
117.00 0.01360
117.50 0.01474
118.00 0.01677
118.50 0.01915
119.00 0.02154
119.50 0.02393
120.00 0.02632
120.50 0.02872
121.00 0.03114
121.50 0.03355
122.00 0.03832
122.50 0.04334
123.00 0.04962
123.50 0.05630
124.00 0.06299
124.50 0.06969
125.00 0.07640
125.50 0.08312
126.00 0.08985
126.50 0.09951
127.00 0.10984
127.50 0.12213
128.00 0.13748
128.50 0.15282
129.00 0.16802
129.50 0.18277
130.00 0.19946
130.50 0.22173
131.00 0.24396
131.50 0.26616
132.00 0.28854
132.50 0.31615
133.00 0.34466
133.50 0.37299
134.00 0.40111
134.50 0.42911
135.00 0.45703
135.50 0.48627
136.00 0.51646
136.50 0.54648
137.00 0.57219
137.50 0.59761
138.00 0.62412
138.50 0.64788
139.00 0.67059
139.50 0.69316
140.00 0.71535
140.50 0.73563
141.00 0.75527
141.50 0.77478
142.00 0.79010
142.50 0.80308
143.00 0.81593
143.50 0.83178
144.00 0.84399
144.50 0.85483
145.00 0.86561
145.50 0.87624
146.00 0.88667
146.50 0.89702
147.00 0.90730
147.50 0.91603
148.00 0.92213
148.50 0.92784
149.00 0.93131
149.50 0.93778
150.00 0.94513
150.50 0.95248
151.00 0.95983
151.50 0.96718
152.00 0.97454
152.50 0.98189
153.00 0.98617
153.50 0.99068
154.00 0.99607
154.50 1.00192
155.00 1.00780
155.50 1.01372
156.00 1.01967
156.50 1.02565
157.00 1.03167
157.50 1.03647
158.00 1.04076
158.50 1.04435
159.00 1.04822
159.50 1.05232
160.00 1.05646
160.50 1.06065
161.00 1.06488
161.50 1.06915
162.00 1.07306
162.50 1.07611
163.00 1.07810
163.50 1.08053
164.00 1.08320
164.50 1.08594
165.00 1.08872
165.50 1.09157
166.00 1.09447
166.50 1.09685
167.00 1.09881
167.50 1.10026
168.00 1.10131
168.50 1.10260
169.00 1.10433
169.50 1.10612
170.00 1.10798
170.50 1.10991
171.00 1.11191
171.50 1.11276
172.00 1.11358
172.50 1.11447
173.00 1.11544
173.50 1.11650
174.00 1.11762
174.50 1.11858
175.00 1.11905
175.50 1.11960
176.00 1.12006
176.50 1.12045
177.00 1.12090
177.50 1.12145
178.00 1.12182
178.50 1.12171
179.00 1.12166
179.50 1.12209
180.00 1.12261
180.00 1.12261
180.50 1.12209
181.00 1.12166
181.50 1.12171
182.00 1.12182
182.50 1.12145
183.00 1.12090
183.50 1.12045
184.00 1.12006
184.50 1.11960
185.00 1.11905
185.50 1.11858
186.00 1.11762
186.50 1.11650
187.00 1.11544
187.50 1.11447
188.00 1.11358
188.50 1.11276
189.00 1.11191
189.50 1.10991
190.00 1.10798
190.50 1.10612
191.00 1.10433
191.50 1.10260
192.00 1.10131
192.50 1.10026
193.00 1.09881
193.50 1.09685
194.00 1.09447
194.50 1.09157
195.00 1.08872
195.50 1.08594
196.00 1.08320
196.50 1.08053
197.00 1.07810
197.50 1.07611
198.00 1.07306
198.50 1.06915
199.00 1.06488
199.50 1.06065
200.00 1.05646
200.50 1.05232
201.00 1.04822
201.50 1.04435
202.00 1.04076
202.50 1.03647
203.00 1.03167
203.50 1.02565
204.00 1.01967
204.50 1.01372
205.00 1.00780
205.50 1.00192
206.00 0.99607
206.50 0.99068
207.00 0.98617
207.50 0.98189
208.00 0.97454
208.50 0.96718
209.00 0.95983
209.50 0.95248
210.00 0.94513
210.50 0.93778
211.00 0.93131
211.50 0.92784
212.00 0.92213
212.50 0.91603
213.00 0.90730
213.50 0.89702
214.00 0.88667
214.50 0.87624
215.00 0.86561
215.50 0.85483
216.00 0.84399
216.50 0.83178
217.00 0.81593
217.50 0.80308
218.00 0.79010
218.50 0.77478
219.00 0.75527
219.50 0.73563
220.00 0.71535
220.50 0.69316
221.00 0.67059
221.50 0.64788
222.00 0.62412
222.50 0.59761
223.00 0.57219
223.50 0.54648
224.00 0.51646
224.50 0.48627
225.00 0.45703
225.50 0.42911
226.00 0.40111
226.50 0.37299
227.00 0.34466
227.50 0.31615
228.00 0.28854
228.50 0.26616
229.00 0.24396
229.50 0.22173
230.00 0.19946
230.50 0.18277
231.00 0.16802
231.50 0.15282
232.00 0.13748
232.50 0.12213
233.00 0.10984
233.50 0.09951
234.00 0.08985
234.50 0.08312
235.00 0.07640
235.50 0.06969
236.00 0.06299
236.50 0.05630
237.00 0.04962
237.50 0.04334
238.00 0.03832
238.50 0.03355
239.00 0.03114
239.50 0.02872
240.00 0.02632
240.50 0.02393
241.00 0.02154
241.50 0.01915
242.00 0.01677
242.50 0.01474
243.00 0.01360
243.50 0.01245
244.00 0.01131
244.50 0.01016
245.00 0.00908
245.50 0.00809
246.00 0.00711
246.50 0.00651
247.00 0.00601
247.50 0.00552
248.00 0.00502
248.50 0.00452
249.00 0.00403
249.50 0.00353
250.00 0.00316
250.50 0.00293
251.00 0.00269
251.50 0.00246
252.00 0.00222
252.50 0.00199
253.00 0.00175
253.50 0.00154
254.00 0.00143
254.50 0.00132
255.00 0.00121
255.50 0.00110
256.00 0.00099
256.50 0.00088
257.00 0.00078
257.50 0.00072
258.00 0.00067
258.50 0.00061
259.00 0.00055
259.50 0.00050
260.00 0.00046
260.50 0.00042
261.00 0.00038
261.50 0.00035
262.00 0.00033
262.50 0.00030
263.00 0.00027
263.50 0.00025
264.00 0.00023
264.50 0.00021
265.00 0.00020
265.50 0.00019
266.00 0.00018
266.50 0.00017
267.00 0.00015
267.50 0.00014
268.00 0.00014
268.50 0.00013
269.00 0.00013
269.50 0.00012
270.00 0.00012
270.00 0.00012
270.50 0.00012
271.00 0.00013
271.50 0.00013
272.00 0.00014
272.50 0.00014
273.00 0.00015
273.50 0.00017
274.00 0.00018
274.50 0.00019
275.00 0.00020
275.50 0.00021
276.00 0.00023
276.50 0.00025
277.00 0.00027
277.50 0.00030
278.00 0.00033
278.50 0.00035
279.00 0.00038
279.50 0.00042
280.00 0.00046
280.50 0.00050
281.00 0.00055
281.50 0.00061
282.00 0.00067
282.50 0.00072
283.00 0.00078
283.50 0.00088
284.00 0.00099
284.50 0.00110
285.00 0.00121
285.50 0.00132
286.00 0.00143
286.50 0.00154
287.00 0.00175
287.50 0.00199
288.00 0.00222
288.50 0.00246
289.00 0.00269
289.50 0.00293
290.00 0.00316
290.50 0.00353
291.00 0.00403
291.50 0.00452
292.00 0.00502
292.50 0.00552
293.00 0.00601
293.50 0.00651
294.00 0.00711
294.50 0.00809
295.00 0.00908
295.50 0.01016
296.00 0.01131
296.50 0.01245
297.00 0.01360
297.50 0.01474
298.00 0.01677
298.50 0.01915
299.00 0.02154
299.50 0.02393
300.00 0.02632
300.50 0.02872
301.00 0.03114
301.50 0.03355
302.00 0.03832
302.50 0.04334
303.00 0.04962
303.50 0.05630
304.00 0.06299
304.50 0.06969
305.00 0.07640
305.50 0.08312
306.00 0.08985
306.50 0.09951
307.00 0.10984
307.50 0.12213
308.00 0.13748
308.50 0.15282
309.00 0.16802
309.50 0.18277
310.00 0.19946
310.50 0.22173
311.00 0.24396
311.50 0.26616
312.00 0.28854
312.50 0.31615
313.00 0.34466
313.50 0.37299
314.00 0.40111
314.50 0.42911
315.00 0.45703
315.50 0.48627
316.00 0.51646
316.50 0.54648
317.00 0.57219
317.50 0.59761
318.00 0.62412
318.50 0.64788
319.00 0.67059
319.50 0.69316
320.00 0.71535
320.50 0.73563
321.00 0.75527
321.50 0.77478
322.00 0.79010
322.50 0.80308
323.00 0.81593
323.50 0.83178
324.00 0.84399
324.50 0.85483
325.00 0.86561
325.50 0.87624
326.00 0.88667
326.50 0.89702
327.00 0.90730
327.50 0.91603
328.00 0.92213
328.50 0.92784
329.00 0.93131
329.50 0.93778
330.00 0.94513
330.50 0.95248
331.00 0.95983
331.50 0.96718
332.00 0.97454
332.50 0.98189
333.00 0.98617
333.50 0.99068
334.00 0.99607
334.50 1.00192
335.00 1.00780
335.50 1.01372
336.00 1.01967
336.50 1.02565
337.00 1.03167
337.50 1.03647
338.00 1.04076
338.50 1.04435
339.00 1.04822
339.50 1.05232
340.00 1.05646
340.50 1.06065
341.00 1.06488
341.50 1.06915
342.00 1.07306
342.50 1.07611
343.00 1.07810
343.50 1.08053
344.00 1.08320
344.50 1.08594
345.00 1.08872
345.50 1.09157
346.00 1.09447
346.50 1.09685
347.00 1.09881
347.50 1.10026
348.00 1.10131
348.50 1.10260
349.00 1.10433
349.50 1.10612
350.00 1.10798
350.50 1.10991
351.00 1.11191
351.50 1.11276
352.00 1.11358
352.50 1.11447
353.00 1.11544
353.50 1.11650
354.00 1.11762
354.50 1.11858
355.00 1.11905
355.50 1.11960
356.00 1.12006
356.50 1.12045
357.00 1.12090
357.50 1.12145
358.00 1.12182
358.50 1.12171
359.00 1.12166
359.50 1.12209
360.00 1.12261
