phi[deg] B[T]
0.00 1.83299
0.50 1.83238
1.00 1.83190
1.50 1.83155
2.00 1.83133
2.50 1.83134
3.00 1.83099
3.50 1.83095
4.00 1.83104
4.50 1.83125
5.00 1.83145
5.50 1.83062
6.00 1.82992
6.50 1.82946
7.00 1.82999
7.50 1.83064
8.00 1.83113
8.50 1.83117
9.00 1.83090
9.50 1.82897
10.00 1.82714
10.50 1.82542
11.00 1.82380
11.50 1.82233
12.00 1.82135
12.50 1.82047
13.00 1.81849
13.50 1.81602
14.00 1.81292
14.50 1.80871
15.00 1.80460
15.50 1.80058
16.00 1.79664
16.50 1.79280
17.00 1.78986
17.50 1.78799
18.00 1.78465
18.50 1.77962
19.00 1.77372
19.50 1.76623
20.00 1.75879
20.50 1.75141
21.00 1.74408
21.50 1.73696
22.00 1.73009
22.50 1.72327
23.00 1.71281
23.50 1.70228
24.00 1.69121
24.50 1.67875
25.00 1.66633
25.50 1.65395
26.00 1.64161
26.50 1.62931
27.00 1.61815
27.50 1.60742
28.00 1.59650
28.50 1.58558
29.00 1.57086
29.50 1.55486
30.00 1.53886
30.50 1.52286
31.00 1.50686
31.50 1.49072
32.00 1.47438
32.50 1.45805
33.00 1.44160
33.50 1.42136
34.00 1.40109
34.50 1.38082
35.00 1.36151
35.50 1.34219
36.00 1.32285
36.50 1.30096
37.00 1.27788
37.50 1.25736
38.00 1.23679
38.50 1.21424
39.00 1.19080
39.50 1.16730
40.00 1.14197
40.50 1.11741
41.00 1.09275
41.50 1.06800
42.00 1.03878
42.50 1.01101
43.00 0.98467
43.50 0.95678
44.00 0.92675
44.50 0.89658
45.00 0.86652
45.50 0.83472
46.00 0.80484
46.50 0.77479
47.00 0.74379
47.50 0.71165
48.00 0.67951
48.50 0.64802
49.00 0.61549
49.50 0.58226
50.00 0.54890
50.50 0.51571
51.00 0.48531
51.50 0.45477
52.00 0.42403
52.50 0.39318
53.00 0.36228
53.50 0.33225
54.00 0.30212
54.50 0.27321
55.00 0.25242
55.50 0.23161
56.00 0.21079
56.50 0.19095
57.00 0.17113
57.50 0.15130
58.00 0.13872
58.50 0.12682
59.00 0.11491
59.50 0.10387
60.00 0.09329
60.50 0.08272
61.00 0.07384
61.50 0.06786
62.00 0.06186
62.50 0.05586
63.00 0.04985
63.50 0.04384
64.00 0.03898
64.50 0.03594
65.00 0.03289
65.50 0.02984
66.00 0.02679
66.50 0.02374
67.00 0.02097
67.50 0.01926
68.00 0.01754
68.50 0.01581
69.00 0.01404
69.50 0.01239
70.00 0.01144
70.50 0.01049
71.00 0.00954
71.50 0.00859
72.00 0.00763
72.50 0.00666
73.00 0.00615
73.50 0.00566
74.00 0.00518
74.50 0.00470
75.00 0.00421
75.50 0.00373
76.00 0.00325
76.50 0.00292
77.00 0.00270
77.50 0.00248
78.00 0.00226
78.50 0.00203
79.00 0.00180
79.50 0.00158
80.00 0.00143
80.50 0.00132
81.00 0.00121
81.50 0.00110
82.00 0.00100
82.50 0.00089
83.00 0.00082
83.50 0.00075
84.00 0.00069
84.50 0.00063
85.00 0.00057
85.50 0.00051
86.00 0.00048
86.50 0.00045
87.00 0.00041
87.50 0.00038
88.00 0.00037
88.50 0.00035
89.00 0.00034
89.50 0.00033
90.00 0.00031
90.00 0.00031
90.50 0.00033
91.00 0.00034
91.50 0.00035
92.00 0.00037
92.50 0.00038
93.00 0.00041
93.50 0.00045
94.00 0.00048
94.50 0.00051
95.00 0.00057
95.50 0.00063
96.00 0.00069
96.50 0.00075
97.00 0.00082
97.50 0.00089
98.00 0.00100
98.50 0.00110
99.00 0.00121
99.50 0.00132
100.00 0.00143
100.50 0.00158
101.00 0.00180
101.50 0.00203
102.00 0.00226
102.50 0.00248
103.00 0.00270
103.50 0.00292
104.00 0.00325
104.50 0.00373
105.00 0.00421
105.50 0.00470
106.00 0.00518
106.50 0.00566
107.00 0.00615
107.50 0.00666
108.00 0.00763
108.50 0.00859
109.00 0.00954
109.50 0.01049
110.00 0.01144
110.50 0.01239
111.00 0.01404
111.50 0.01581
112.00 0.01754
112.50 0.01926
113.00 0.02097
113.50 0.02374
114.00 0.02679
114.50 0.02984
115.00 0.03289
115.50 0.03594
116.00 0.03898
116.50 0.04384
117.00 0.04985
117.50 0.05586
118.00 0.06186
118.50 0.06786
119.00 0.07384
119.50 0.08272
120.00 0.09329
120.50 0.10387
121.00 0.11491
121.50 0.12682
122.00 0.13872
122.50 0.15130
123.00 0.17113
123.50 0.19095
124.00 0.21079
124.50 0.23161
125.00 0.25242
125.50 0.27321
126.00 0.30212
126.50 0.33225
127.00 0.36228
127.50 0.39318
128.00 0.42403
128.50 0.45477
129.00 0.48531
129.50 0.51571
130.00 0.54890
130.50 0.58226
131.00 0.61549
131.50 0.64802
132.00 0.67951
132.50 0.71165
133.00 0.74379
133.50 0.77479
134.00 0.80484
134.50 0.83472
135.00 0.86652
135.50 0.89658
136.00 0.92675
136.50 0.95678
137.00 0.98467
137.50 1.01101
138.00 1.03878
138.50 1.06800
139.00 1.09275
139.50 1.11741
140.00 1.14197
140.50 1.16730
141.00 1.19080
141.50 1.21424
142.00 1.23679
142.50 1.25736
143.00 1.27788
143.50 1.30096
144.00 1.32285
144.50 1.34219
145.00 1.36151
145.50 1.38082
146.00 1.40109
146.50 1.42136
147.00 1.44160
147.50 1.45805
148.00 1.47438
148.50 1.49072
149.00 1.50686
149.50 1.52286
150.00 1.53886
150.50 1.55486
151.00 1.57086
151.50 1.58558
152.00 1.59650
152.50 1.60742
153.00 1.61815
153.50 1.62931
154.00 1.64161
154.50 1.65395
155.00 1.66633
155.50 1.67875
156.00 1.69121
156.50 1.70228
157.00 1.71281
157.50 1.72327
158.00 1.73009
158.50 1.73696
159.00 1.74408
159.50 1.75141
160.00 1.75879
160.50 1.76623
161.00 1.77372
161.50 1.77962
162.00 1.78465
162.50 1.78799
163.00 1.78986
163.50 1.79280
164.00 1.79664
164.50 1.80058
165.00 1.80460
165.50 1.80871
166.00 1.81292
166.50 1.81602
167.00 1.81849
167.50 1.82047
168.00 1.82135
168.50 1.82233
169.00 1.82380
169.50 1.82542
170.00 1.82714
170.50 1.82897
171.00 1.83090
171.50 1.83117
172.00 1.83113
172.50 1.83064
173.00 1.82999
173.50 1.82946
174.00 1.82992
174.50 1.83062
175.00 1.83145
175.50 1.83125
176.00 1.83104
176.50 1.83095
177.00 1.83099
177.50 1.83134
178.00 1.83133
178.50 1.83155
179.00 1.83190
179.50 1.83238
180.00 1.83299
180.00 1.83299
180.50 1.83238
181.00 1.83190
181.50 1.83155
182.00 1.83133
182.50 1.83134
183.00 1.83099
183.50 1.83095
184.00 1.83104
184.50 1.83125
185.00 1.83145
185.50 1.83062
186.00 1.82992
186.50 1.82946
187.00 1.82999
187.50 1.83064
188.00 1.83113
188.50 1.83117
189.00 1.83090
189.50 1.82897
190.00 1.82714
190.50 1.82542
191.00 1.82380
191.50 1.82233
192.00 1.82135
192.50 1.82047
193.00 1.81849
193.50 1.81602
194.00 1.81292
194.50 1.80871
195.00 1.80460
195.50 1.80058
196.00 1.79664
196.50 1.79280
197.00 1.78986
197.50 1.78799
198.00 1.78465
198.50 1.77962
199.00 1.77372
199.50 1.76623
200.00 1.75879
200.50 1.75141
201.00 1.74408
201.50 1.73696
202.00 1.73009
202.50 1.72327
203.00 1.71281
203.50 1.70228
204.00 1.69121
204.50 1.67875
205.00 1.66633
205.50 1.65395
206.00 1.64161
206.50 1.62931
207.00 1.61815
207.50 1.60742
208.00 1.59650
208.50 1.58558
209.00 1.57086
209.50 1.55486
210.00 1.53886
210.50 1.52286
211.00 1.50686
211.50 1.49072
212.00 1.47438
212.50 1.45805
213.00 1.44160
213.50 1.42136
214.00 1.40109
214.50 1.38082
215.00 1.36151
215.50 1.34219
216.00 1.32285
216.50 1.30096
217.00 1.27788
217.50 1.25736
218.00 1.23679
218.50 1.21424
219.00 1.19080
219.50 1.16730
220.00 1.14197
220.50 1.11741
221.00 1.09275
221.50 1.06800
222.00 1.03878
222.50 1.01101
223.00 0.98467
223.50 0.95678
224.00 0.92675
224.50 0.89658
225.00 0.86652
225.50 0.83472
226.00 0.80484
226.50 0.77479
227.00 0.74379
227.50 0.71165
228.00 0.67951
228.50 0.64802
229.00 0.61549
229.50 0.58226
230.00 0.54890
230.50 0.51571
231.00 0.48531
231.50 0.45477
232.00 0.42403
232.50 0.39318
233.00 0.36228
233.50 0.33225
234.00 0.30212
234.50 0.27321
235.00 0.25242
235.50 0.23161
236.00 0.21079
236.50 0.19095
237.00 0.17113
237.50 0.15130
238.00 0.13872
238.50 0.12682
239.00 0.11491
239.50 0.10387
240.00 0.09329
240.50 0.08272
241.00 0.07384
241.50 0.06786
242.00 0.06186
242.50 0.05586
243.00 0.04985
243.50 0.04384
244.00 0.03898
244.50 0.03594
245.00 0.03289
245.50 0.02984
246.00 0.02679
246.50 0.02374
247.00 0.02097
247.50 0.01926
248.00 0.01754
248.50 0.01581
249.00 0.01404
249.50 0.01239
250.00 0.01144
250.50 0.01049
251.00 0.00954
251.50 0.00859
252.00 0.00763
252.50 0.00666
253.00 0.00615
253.50 0.00566
254.00 0.00518
254.50 0.00470
255.00 0.00421
255.50 0.00373
256.00 0.00325
256.50 0.00292
257.00 0.00270
257.50 0.00248
258.00 0.00226
258.50 0.00203
259.00 0.00180
259.50 0.00158
260.00 0.00143
260.50 0.00132
261.00 0.00121
261.50 0.00110
262.00 0.00100
262.50 0.00089
263.00 0.00082
263.50 0.00075
264.00 0.00069
264.50 0.00063
265.00 0.00057
265.50 0.00051
266.00 0.00048
266.50 0.00045
267.00 0.00041
267.50 0.00038
268.00 0.00037
268.50 0.00035
269.00 0.00034
269.50 0.00033
270.00 0.00031
270.00 0.00031
270.50 0.00033
271.00 0.00034
271.50 0.00035
272.00 0.00037
272.50 0.00038
273.00 0.00041
273.50 0.00045
274.00 0.00048
274.50 0.00051
275.00 0.00057
275.50 0.00063
276.00 0.00069
276.50 0.00075
277.00 0.00082
277.50 0.00089
278.00 0.00100
278.50 0.00110
279.00 0.00121
279.50 0.00132
280.00 0.00143
280.50 0.00158
281.00 0.00180
281.50 0.00203
282.00 0.00226
282.50 0.00248
283.00 0.00270
283.50 0.00292
284.00 0.00325
284.50 0.00373
285.00 0.00421
285.50 0.00470
286.00 0.00518
286.50 0.00566
287.00 0.00615
287.50 0.00666
288.00 0.00763
288.50 0.00859
289.00 0.00954
289.50 0.01049
290.00 0.01144
290.50 0.01239
291.00 0.01404
291.50 0.01581
292.00 0.01754
292.50 0.01926
293.00 0.02097
293.50 0.02374
294.00 0.02679
294.50 0.02984
295.00 0.03289
295.50 0.03594
296.00 0.03898
296.50 0.04384
297.00 0.04985
297.50 0.05586
298.00 0.06186
298.50 0.06786
299.00 0.07384
299.50 0.08272
300.00 0.09329
300.50 0.10387
301.00 0.11491
301.50 0.12682
302.00 0.13872
302.50 0.15130
303.00 0.17113
303.50 0.19095
304.00 0.21079
304.50 0.23161
305.00 0.25242
305.50 0.27321
306.00 0.30212
306.50 0.33225
307.00 0.36228
307.50 0.39318
308.00 0.42403
308.50 0.45477
309.00 0.48531
309.50 0.51571
310.00 0.54890
310.50 0.58226
311.00 0.61549
311.50 0.64802
312.00 0.67951
312.50 0.71165
313.00 0.74379
313.50 0.77479
314.00 0.80484
314.50 0.83472
315.00 0.86652
315.50 0.89658
316.00 0.92675
316.50 0.95678
317.00 0.98467
317.50 1.01101
318.00 1.03878
318.50 1.06800
319.00 1.09275
319.50 1.11741
320.00 1.14197
320.50 1.16730
321.00 1.19080
321.50 1.21424
322.00 1.23679
322.50 1.25736
323.00 1.27788
323.50 1.30096
324.00 1.32285
324.50 1.34219
325.00 1.36151
325.50 1.38082
326.00 1.40109
326.50 1.42136
327.00 1.44160
327.50 1.45805
328.00 1.47438
328.50 1.49072
329.00 1.50686
329.50 1.52286
330.00 1.53886
330.50 1.55486
331.00 1.57086
331.50 1.58558
332.00 1.59650
332.50 1.60742
333.00 1.61815
333.50 1.62931
334.00 1.64161
334.50 1.65395
335.00 1.66633
335.50 1.67875
336.00 1.69121
336.50 1.70228
337.00 1.71281
337.50 1.72327
338.00 1.73009
338.50 1.73696
339.00 1.74408
339.50 1.75141
340.00 1.75879
340.50 1.76623
341.00 1.77372
341.50 1.77962
342.00 1.78465
342.50 1.78799
343.00 1.78986
343.50 1.79280
344.00 1.79664
344.50 1.80058
345.00 1.80460
345.50 1.80871
346.00 1.81292
346.50 1.81602
347.00 1.81849
347.50 1.82047
348.00 1.82135
348.50 1.82233
349.00 1.82380
349.50 1.82542
350.00 1.82714
350.50 1.82897
351.00 1.83090
351.50 1.83117
352.00 1.83113
352.50 1.83064
353.00 1.82999
353.50 1.82946
354.00 1.82992
354.50 1.83062
355.00 1.83145
355.50 1.83125
356.00 1.83104
356.50 1.83095
357.00 1.83099
357.50 1.83134
358.00 1.83133
358.50 1.83155
359.00 1.83190
359.50 1.83238
360.00 1.83299
