phi[deg] B[T]
0.00 1.53294
0.50 1.53238
1.00 1.53194
1.50 1.53162
2.00 1.53141
2.50 1.53114
3.00 1.53099
3.50 1.53096
4.00 1.53106
4.50 1.53125
5.00 1.53157
5.50 1.53214
6.00 1.53317
6.50 1.53431
7.00 1.53519
7.50 1.53588
8.00 1.53669
8.50 1.53762
9.00 1.53902
9.50 1.54168
10.00 1.54351
10.50 1.54461
11.00 1.54453
11.50 1.54452
12.00 1.54460
12.50 1.54477
13.00 1.54369
13.50 1.54210
14.00 1.54030
14.50 1.53783
15.00 1.53544
15.50 1.53315
16.00 1.53094
16.50 1.52883
17.00 1.52699
17.50 1.52554
18.00 1.52247
18.50 1.51894
19.00 1.51547
19.50 1.51206
20.00 1.50916
20.50 1.50740
21.00 1.50570
21.50 1.49881
22.00 1.49075
22.50 1.48272
23.00 1.47473
23.50 1.46746
24.00 1.46219
24.50 1.44997
25.00 1.43565
25.50 1.42268
26.00 1.40975
26.50 1.39685
27.00 1.38398
27.50 1.36974
28.00 1.35440
28.50 1.33904
29.00 1.32343
29.50 1.30786
30.00 1.29235
30.50 1.27689
31.00 1.26174
31.50 1.24785
32.00 1.23437
32.50 1.21783
33.00 1.20072
33.50 1.18363
34.00 1.16654
34.50 1.14948
35.00 1.13260
35.50 1.11650
36.00 1.09725
36.50 1.07631
37.00 1.05608
37.50 1.03627
38.00 1.01648
38.50 0.99562
39.00 0.97480
39.50 0.95396
40.00 0.93335
40.50 0.91310
41.00 0.89301
41.50 0.87334
42.00 0.85385
42.50 0.83444
43.00 0.81600
43.50 0.79763
44.00 0.77967
44.50 0.76220
45.00 0.74491
45.50 0.72891
46.00 0.71273
46.50 0.69760
47.00 0.68350
47.50 0.66899
48.00 0.65618
48.50 0.64361
49.00 0.63044
49.50 0.61799
50.00 0.60633
50.50 0.59676
51.00 0.58765
51.50 0.57504
52.00 0.56238
52.50 0.54968
53.00 0.53647
53.50 0.51964
54.00 0.50464
54.50 0.49058
55.00 0.47637
55.50 0.46200
56.00 0.44593
56.50 0.42850
57.00 0.40807
57.50 0.38747
58.00 0.36670
58.50 0.34478
59.00 0.31785
59.50 0.29078
60.00 0.26850
60.50 0.24752
61.00 0.22645
61.50 0.20527
62.00 0.18132
62.50 0.15664
63.00 0.13941
63.50 0.12359
64.00 0.11108
64.50 0.09857
65.00 0.08606
65.50 0.07415
66.00 0.06618
66.50 0.05819
67.00 0.05019
67.50 0.04413
68.00 0.03821
68.50 0.03337
69.00 0.03011
69.50 0.02685
70.00 0.02358
70.50 0.02031
71.00 0.01721
71.50 0.01529
72.00 0.01376
72.50 0.01226
73.00 0.01076
73.50 0.00926
74.00 0.00779
74.50 0.00700
75.00 0.00621
75.50 0.00541
76.00 0.00472
76.50 0.00405
77.00 0.00360
77.50 0.00324
78.00 0.00289
78.50 0.00254
79.00 0.00220
79.50 0.00187
80.00 0.00168
80.50 0.00150
81.00 0.00131
81.50 0.00117
82.00 0.00104
82.50 0.00090
83.00 0.00080
83.50 0.00071
84.00 0.00062
84.50 0.00057
85.00 0.00051
85.50 0.00045
86.00 0.00040
86.50 0.00036
87.00 0.00033
87.50 0.00031
88.00 0.00028
88.50 0.00026
89.00 0.00025
89.50 0.00024
90.00 0.00023
90.00 0.00023
90.50 0.00024
91.00 0.00025
91.50 0.00026
92.00 0.00028
92.50 0.00031
93.00 0.00033
93.50 0.00036
94.00 0.00040
94.50 0.00045
95.00 0.00051
95.50 0.00057
96.00 0.00062
96.50 0.00071
97.00 0.00080
97.50 0.00090
98.00 0.00104
98.50 0.00117
99.00 0.00131
99.50 0.00150
100.00 0.00168
100.50 0.00187
101.00 0.00220
101.50 0.00254
102.00 0.00289
102.50 0.00324
103.00 0.00360
103.50 0.00405
104.00 0.00472
104.50 0.00541
105.00 0.00621
105.50 0.00700
106.00 0.00779
106.50 0.00926
107.00 0.01076
107.50 0.01226
108.00 0.01376
108.50 0.01529
109.00 0.01721
109.50 0.02031
110.00 0.02358
110.50 0.02685
111.00 0.03011
111.50 0.03337
112.00 0.03821
112.50 0.04413
113.00 0.05019
113.50 0.05819
114.00 0.06618
114.50 0.07415
115.00 0.08606
115.50 0.09857
116.00 0.11108
116.50 0.12359
117.00 0.13941
117.50 0.15664
118.00 0.18132
118.50 0.20527
119.00 0.22645
119.50 0.24752
120.00 0.26850
120.50 0.29078
121.00 0.31785
121.50 0.34478
122.00 0.36670
122.50 0.38747
123.00 0.40807
123.50 0.42850
124.00 0.44593
124.50 0.46200
125.00 0.47637
125.50 0.49058
126.00 0.50464
126.50 0.51964
127.00 0.53647
127.50 0.54968
128.00 0.56238
128.50 0.57504
129.00 0.58765
129.50 0.59676
130.00 0.60633
130.50 0.61799
131.00 0.63044
131.50 0.64361
132.00 0.65618
132.50 0.66899
133.00 0.68350
133.50 0.69760
134.00 0.71273
134.50 0.72891
135.00 0.74491
135.50 0.76220
136.00 0.77967
136.50 0.79763
137.00 0.81600
137.50 0.83444
138.00 0.85385
138.50 0.87334
139.00 0.89301
139.50 0.91310
140.00 0.93335
140.50 0.95396
141.00 0.97480
141.50 0.99562
142.00 1.01648
142.50 1.03627
143.00 1.05608
143.50 1.07631
144.00 1.09725
144.50 1.11650
145.00 1.13260
145.50 1.14948
146.00 1.16654
146.50 1.18363
147.00 1.20072
147.50 1.21783
148.00 1.23437
148.50 1.24785
149.00 1.26174
149.50 1.27689
150.00 1.29235
150.50 1.30786
151.00 1.32343
151.50 1.33904
152.00 1.35440
152.50 1.36974
153.00 1.38398
153.50 1.39685
154.00 1.40975
154.50 1.42268
155.00 1.43565
155.50 1.44997
156.00 1.46219
156.50 1.46746
157.00 1.47473
157.50 1.48272
158.00 1.49075
158.50 1.49881
159.00 1.50570
159.50 1.50740
160.00 1.50916
160.50 1.51206
161.00 1.51547
161.50 1.51894
162.00 1.52247
162.50 1.52554
163.00 1.52699
163.50 1.52883
164.00 1.53094
164.50 1.53315
165.00 1.53544
165.50 1.53783
166.00 1.54030
166.50 1.54210
167.00 1.54369
167.50 1.54477
168.00 1.54460
168.50 1.54452
169.00 1.54453
169.50 1.54461
170.00 1.54351
170.50 1.54168
171.00 1.53902
171.50 1.53762
172.00 1.53669
172.50 1.53588
173.00 1.53519
173.50 1.53431
174.00 1.53317
174.50 1.53214
175.00 1.53157
175.50 1.53125
176.00 1.53106
176.50 1.53096
177.00 1.53099
177.50 1.53114
178.00 1.53141
178.50 1.53162
179.00 1.53194
179.50 1.53238
180.00 1.53294
180.00 1.53294
180.50 1.53238
181.00 1.53194
181.50 1.53162
182.00 1.53141
182.50 1.53114
183.00 1.53099
183.50 1.53096
184.00 1.53106
184.50 1.53125
185.00 1.53157
185.50 1.53214
186.00 1.53317
186.50 1.53431
187.00 1.53519
187.50 1.53588
188.00 1.53669
188.50 1.53762
189.00 1.53902
189.50 1.54168
190.00 1.54351
190.50 1.54461
191.00 1.54453
191.50 1.54452
192.00 1.54460
192.50 1.54477
193.00 1.54369
193.50 1.54210
194.00 1.54030
194.50 1.53783
195.00 1.53544
195.50 1.53315
196.00 1.53094
196.50 1.52883
197.00 1.52699
197.50 1.52554
198.00 1.52247
198.50 1.51894
199.00 1.51547
199.50 1.51206
200.00 1.50916
200.50 1.50740
201.00 1.50570
201.50 1.49881
202.00 1.49075
202.50 1.48272
203.00 1.47473
203.50 1.46746
204.00 1.46219
204.50 1.44997
205.00 1.43565
205.50 1.42268
206.00 1.40975
206.50 1.39685
207.00 1.38398
207.50 1.36974
208.00 1.35440
208.50 1.33904
209.00 1.32343
209.50 1.30786
210.00 1.29235
210.50 1.27689
211.00 1.26174
211.50 1.24785
212.00 1.23437
212.50 1.21783
213.00 1.20072
213.50 1.18363
214.00 1.16654
214.50 1.14948
215.00 1.13260
215.50 1.11650
216.00 1.09725
216.50 1.07631
217.00 1.05608
217.50 1.03627
218.00 1.01648
218.50 0.99562
219.00 0.97480
219.50 0.95396
220.00 0.93335
220.50 0.91310
221.00 0.89301
221.50 0.87334
222.00 0.85385
222.50 0.83444
223.00 0.81600
223.50 0.79763
224.00 0.77967
224.50 0.76220
225.00 0.74491
225.50 0.72891
226.00 0.71273
226.50 0.69760
227.00 0.68350
227.50 0.66899
228.00 0.65618
228.50 0.64361
229.00 0.63044
229.50 0.61799
230.00 0.60633
230.50 0.59676
231.00 0.58765
231.50 0.57504
232.00 0.56238
232.50 0.54968
233.00 0.53647
233.50 0.51964
234.00 0.50464
234.50 0.49058
235.00 0.47637
235.50 0.46200
236.00 0.44593
236.50 0.42850
237.00 0.40807
237.50 0.38747
238.00 0.36670
238.50 0.34478
239.00 0.31785
239.50 0.29078
240.00 0.26850
240.50 0.24752
241.00 0.22645
241.50 0.20527
242.00 0.18132
242.50 0.15664
243.00 0.13941
243.50 0.12359
244.00 0.11108
244.50 0.09857
245.00 0.08606
245.50 0.07415
246.00 0.06618
246.50 0.05819
247.00 0.05019
247.50 0.04413
248.00 0.03821
248.50 0.03337
249.00 0.03011
249.50 0.02685
250.00 0.02358
250.50 0.02031
251.00 0.01721
251.50 0.01529
252.00 0.01376
252.50 0.01226
253.00 0.01076
253.50 0.00926
254.00 0.00779
254.50 0.00700
255.00 0.00621
255.50 0.00541
256.00 0.00472
256.50 0.00405
257.00 0.00360
257.50 0.00324
258.00 0.00289
258.50 0.00254
259.00 0.00220
259.50 0.00187
260.00 0.00168
260.50 0.00150
261.00 0.00131
261.50 0.00117
262.00 0.00104
262.50 0.00090
263.00 0.00080
263.50 0.00071
264.00 0.00062
264.50 0.00057
265.00 0.00051
265.50 0.00045
266.00 0.00040
266.50 0.00036
267.00 0.00033
267.50 0.00031
268.00 0.00028
268.50 0.00026
269.00 0.00025
269.50 0.00024
270.00 0.00023
270.00 0.00023
270.50 0.00024
271.00 0.00025
271.50 0.00026
272.00 0.00028
272.50 0.00031
273.00 0.00033
273.50 0.00036
274.00 0.00040
274.50 0.00045
275.00 0.00051
275.50 0.00057
276.00 0.00062
276.50 0.00071
277.00 0.00080
277.50 0.00090
278.00 0.00104
278.50 0.00117
279.00 0.00131
279.50 0.00150
280.00 0.00168
280.50 0.00187
281.00 0.00220
281.50 0.00254
282.00 0.00289
282.50 0.00324
283.00 0.00360
283.50 0.00405
284.00 0.00472
284.50 0.00541
285.00 0.00621
285.50 0.00700
286.00 0.00779
286.50 0.00926
287.00 0.01076
287.50 0.01226
288.00 0.01376
288.50 0.01529
289.00 0.01721
289.50 0.02031
290.00 0.02358
290.50 0.02685
291.00 0.03011
291.50 0.03337
292.00 0.03821
292.50 0.04413
293.00 0.05019
293.50 0.05819
294.00 0.06618
294.50 0.07415
295.00 0.08606
295.50 0.09857
296.00 0.11108
296.50 0.12359
297.00 0.13941
297.50 0.15664
298.00 0.18132
298.50 0.20527
299.00 0.22645
299.50 0.24752
300.00 0.26850
300.50 0.29078
301.00 0.31785
301.50 0.34478
302.00 0.36670
302.50 0.38747
303.00 0.40807
303.50 0.42850
304.00 0.44593
304.50 0.46200
305.00 0.47637
305.50 0.49058
306.00 0.50464
306.50 0.51964
307.00 0.53647
307.50 0.54968
308.00 0.56238
308.50 0.57504
309.00 0.58765
309.50 0.59676
310.00 0.60633
310.50 0.61799
311.00 0.63044
311.50 0.64361
312.00 0.65618
312.50 0.66899
313.00 0.68350
313.50 0.69760
314.00 0.71273
314.50 0.72891
315.00 0.74491
315.50 0.76220
316.00 0.77967
316.50 0.79763
317.00 0.81600
317.50 0.83444
318.00 0.85385
318.50 0.87334
319.00 0.89301
319.50 0.91310
320.00 0.93335
320.50 0.95396
321.00 0.97480
321.50 0.99562
322.00 1.01648
322.50 1.03627
323.00 1.05608
323.50 1.07631
324.00 1.09725
324.50 1.11650
325.00 1.13260
325.50 1.14948
326.00 1.16654
326.50 1.18363
327.00 1.20072
327.50 1.21783
328.00 1.23437
328.50 1.24785
329.00 1.26174
329.50 1.27689
330.00 1.29235
330.50 1.30786
331.00 1.32343
331.50 1.33904
332.00 1.35440
332.50 1.36974
333.00 1.38398
333.50 1.39685
334.00 1.40975
334.50 1.42268
335.00 1.43565
335.50 1.44997
336.00 1.46219
336.50 1.46746
337.00 1.47473
337.50 1.48272
338.00 1.49075
338.50 1.49881
339.00 1.50570
339.50 1.50740
340.00 1.50916
340.50 1.51206
341.00 1.51547
341.50 1.51894
342.00 1.52247
342.50 1.52554
343.00 1.52699
343.50 1.52883
344.00 1.53094
344.50 1.53315
345.00 1.53544
345.50 1.53783
346.00 1.54030
346.50 1.54210
347.00 1.54369
347.50 1.54477
348.00 1.54460
348.50 1.54452
349.00 1.54453
349.50 1.54461
350.00 1.54351
350.50 1.54168
351.00 1.53902
351.50 1.53762
352.00 1.53669
352.50 1.53588
353.00 1.53519
353.50 1.53431
354.00 1.53317
354.50 1.53214
355.00 1.53157
355.50 1.53125
356.00 1.53106
356.50 1.53096
357.00 1.53099
357.50 1.53114
358.00 1.53141
358.50 1.53162
359.00 1.53194
359.50 1.53238
360.00 1.53294
