phi[deg] B[T]
0.00 1.72468
0.50 1.72459
1.00 1.72466
1.50 1.72517
2.00 1.72582
2.50 1.72670
3.00 1.72774
3.50 1.72889
4.00 1.73001
4.50 1.73126
5.00 1.73204
5.50 1.73295
6.00 1.73400
6.50 1.73527
7.00 1.73730
7.50 1.73945
8.00 1.74215
8.50 1.74484
9.00 1.74655
9.50 1.74671
10.00 1.74696
10.50 1.74728
11.00 1.74769
11.50 1.74818
12.00 1.74875
12.50 1.74940
13.00 1.75097
13.50 1.75367
14.00 1.75457
14.50 1.75458
15.00 1.75451
15.50 1.75061
16.00 1.74673
16.50 1.74286
17.00 1.73902
17.50 1.73520
18.00 1.73052
18.50 1.72528
19.00 1.72005
19.50 1.71262
20.00 1.70036
20.50 1.68809
21.00 1.67580
21.50 1.66351
22.00 1.65121
22.50 1.64125
23.00 1.63206
23.50 1.61901
24.00 1.60407
24.50 1.58462
25.00 1.56508
25.50 1.54547
26.00 1.52577
26.50 1.50599
27.00 1.48613
27.50 1.46667
28.00 1.44790
28.50 1.42562
29.00 1.40125
29.50 1.37415
30.00 1.34618
30.50 1.31811
31.00 1.28993
31.50 1.26165
32.00 1.23326
32.50 1.20641
33.00 1.18238
33.50 1.15399
34.00 1.12404
34.50 1.09235
35.00 1.06050
35.50 1.02850
36.00 0.99635
36.50 0.96404
37.00 0.93269
37.50 0.90269
38.00 0.86984
38.50 0.83602
39.00 0.80204
39.50 0.76837
40.00 0.73458
40.50 0.70056
41.00 0.66560
41.50 0.63050
42.00 0.59626
42.50 0.56392
43.00 0.53054
43.50 0.49534
44.00 0.46134
44.50 0.43068
45.00 0.39993
45.50 0.37219
46.00 0.34436
46.50 0.31543
47.00 0.28629
47.50 0.26117
48.00 0.23910
48.50 0.21696
49.00 0.19583
49.50 0.17582
50.00 0.15859
50.50 0.14609
51.00 0.13350
51.50 0.12061
52.00 0.10772
52.50 0.09484
53.00 0.08639
53.50 0.07856
54.00 0.07114
54.50 0.06505
55.00 0.05896
55.50 0.05287
56.00 0.04680
56.50 0.04134
57.00 0.03761
57.50 0.03388
58.00 0.03014
58.50 0.02725
59.00 0.02488
59.50 0.02250
60.00 0.02013
60.50 0.01796
61.00 0.01615
61.50 0.01434
62.00 0.01290
62.50 0.01196
63.00 0.01102
63.50 0.01008
64.00 0.00915
64.50 0.00821
65.00 0.00727
65.50 0.00631
66.00 0.00567
66.50 0.00527
67.00 0.00486
67.50 0.00446
68.00 0.00405
68.50 0.00365
69.00 0.00324
69.50 0.00284
70.00 0.00244
70.50 0.00225
71.00 0.00207
71.50 0.00190
72.00 0.00172
72.50 0.00154
73.00 0.00140
73.50 0.00130
74.00 0.00120
74.50 0.00111
75.00 0.00101
75.50 0.00091
76.00 0.00081
76.50 0.00074
77.00 0.00070
77.50 0.00065
78.00 0.00060
78.50 0.00056
79.00 0.00051
79.50 0.00046
80.00 0.00041
80.50 0.00038
81.00 0.00036
81.50 0.00033
82.00 0.00031
82.50 0.00028
83.00 0.00025
83.50 0.00024
84.00 0.00022
84.50 0.00020
85.00 0.00018
85.50 0.00016
86.00 0.00014
86.50 0.00013
87.00 0.00011
87.50 0.00010
88.00 0.00008
88.50 0.00007
89.00 0.00006
89.50 0.00005
90.00 0.00005
90.00 0.00005
90.50 0.00005
91.00 0.00006
91.50 0.00007
92.00 0.00008
92.50 0.00010
93.00 0.00011
93.50 0.00013
94.00 0.00014
94.50 0.00016
95.00 0.00018
95.50 0.00020
96.00 0.00022
96.50 0.00024
97.00 0.00025
97.50 0.00028
98.00 0.00031
98.50 0.00033
99.00 0.00036
99.50 0.00038
100.00 0.00041
100.50 0.00046
101.00 0.00051
101.50 0.00056
102.00 0.00060
102.50 0.00065
103.00 0.00070
103.50 0.00074
104.00 0.00081
104.50 0.00091
105.00 0.00101
105.50 0.00111
106.00 0.00120
106.50 0.00130
107.00 0.00140
107.50 0.00154
108.00 0.00172
108.50 0.00190
109.00 0.00207
109.50 0.00225
110.00 0.00244
110.50 0.00284
111.00 0.00324
111.50 0.00365
112.00 0.00405
112.50 0.00446
113.00 0.00486
113.50 0.00527
114.00 0.00567
114.50 0.00631
115.00 0.00727
115.50 0.00821
116.00 0.00915
116.50 0.01008
117.00 0.01102
117.50 0.01196
118.00 0.01290
118.50 0.01434
119.00 0.01615
119.50 0.01796
120.00 0.02013
120.50 0.02250
121.00 0.02488
121.50 0.02725
122.00 0.03014
122.50 0.03388
123.00 0.03761
123.50 0.04134
124.00 0.04680
124.50 0.05287
125.00 0.05896
125.50 0.06505
126.00 0.07114
126.50 0.07856
127.00 0.08639
127.50 0.09484
128.00 0.10772
128.50 0.12061
129.00 0.13350
129.50 0.14609
130.00 0.15859
130.50 0.17582
131.00 0.19583
131.50 0.21696
132.00 0.23910
132.50 0.26117
133.00 0.28629
133.50 0.31543
134.00 0.34436
134.50 0.37219
135.00 0.39993
135.50 0.43068
136.00 0.46134
136.50 0.49534
137.00 0.53054
137.50 0.56392
138.00 0.59626
138.50 0.63050
139.00 0.66560
139.50 0.70056
140.00 0.73458
140.50 0.76837
141.00 0.80204
141.50 0.83602
142.00 0.86984
142.50 0.90269
143.00 0.93269
143.50 0.96404
144.00 0.99635
144.50 1.02850
145.00 1.06050
145.50 1.09235
146.00 1.12404
146.50 1.15399
147.00 1.18238
147.50 1.20641
148.00 1.23326
148.50 1.26165
149.00 1.28993
149.50 1.31811
150.00 1.34618
150.50 1.37415
151.00 1.40125
151.50 1.42562
152.00 1.44790
152.50 1.46667
153.00 1.48613
153.50 1.50599
154.00 1.52577
154.50 1.54547
155.00 1.56508
155.50 1.58462
156.00 1.60407
156.50 1.61901
157.00 1.63206
157.50 1.64125
158.00 1.65121
158.50 1.66351
159.00 1.67580
159.50 1.68809
160.00 1.70036
160.50 1.71262
161.00 1.72005
161.50 1.72528
162.00 1.73052
162.50 1.73520
163.00 1.73902
163.50 1.74286
164.00 1.74673
164.50 1.75061
165.00 1.75451
165.50 1.75458
166.00 1.75457
166.50 1.75367
167.00 1.75097
167.50 1.74940
168.00 1.74875
168.50 1.74818
169.00 1.74769
169.50 1.74728
170.00 1.74696
170.50 1.74671
171.00 1.74655
171.50 1.74484
172.00 1.74215
172.50 1.73945
173.00 1.73730
173.50 1.73527
174.00 1.73400
174.50 1.73295
175.00 1.73204
175.50 1.73126
176.00 1.73001
176.50 1.72889
177.00 1.72774
177.50 1.72670
178.00 1.72582
178.50 1.72517
179.00 1.72466
179.50 1.72459
180.00 1.72468
180.00 1.72468
180.50 1.72459
181.00 1.72466
181.50 1.72517
182.00 1.72582
182.50 1.72670
183.00 1.72774
183.50 1.72889
184.00 1.73001
184.50 1.73126
185.00 1.73204
185.50 1.73295
186.00 1.73400
186.50 1.73527
187.00 1.73730
187.50 1.73945
188.00 1.74215
188.50 1.74484
189.00 1.74655
189.50 1.74671
190.00 1.74696
190.50 1.74728
191.00 1.74769
191.50 1.74818
192.00 1.74875
192.50 1.74940
193.00 1.75097
193.50 1.75367
194.00 1.75457
194.50 1.75458
195.00 1.75451
195.50 1.75061
196.00 1.74673
196.50 1.74286
197.00 1.73902
197.50 1.73520
198.00 1.73052
198.50 1.72528
199.00 1.72005
199.50 1.71262
200.00 1.70036
200.50 1.68809
201.00 1.67580
201.50 1.66351
202.00 1.65121
202.50 1.64125
203.00 1.63206
203.50 1.61901
204.00 1.60407
204.50 1.58462
205.00 1.56508
205.50 1.54547
206.00 1.52577
206.50 1.50599
207.00 1.48613
207.50 1.46667
208.00 1.44790
208.50 1.42562
209.00 1.40125
209.50 1.37415
210.00 1.34618
210.50 1.31811
211.00 1.28993
211.50 1.26165
212.00 1.23326
212.50 1.20641
213.00 1.18238
213.50 1.15399
214.00 1.12404
214.50 1.09235
215.00 1.06050
215.50 1.02850
216.00 0.99635
216.50 0.96404
217.00 0.93269
217.50 0.90269
218.00 0.86984
218.50 0.83602
219.00 0.80204
219.50 0.76837
220.00 0.73458
220.50 0.70056
221.00 0.66560
221.50 0.63050
222.00 0.59626
222.50 0.56392
223.00 0.53054
223.50 0.49534
224.00 0.46134
224.50 0.43068
225.00 0.39993
225.50 0.37219
226.00 0.34436
226.50 0.31543
227.00 0.28629
227.50 0.26117
228.00 0.23910
228.50 0.21696
229.00 0.19583
229.50 0.17582
230.00 0.15859
230.50 0.14609
231.00 0.13350
231.50 0.12061
232.00 0.10772
232.50 0.09484
233.00 0.08639
233.50 0.07856
234.00 0.07114
234.50 0.06505
235.00 0.05896
235.50 0.05287
236.00 0.04680
236.50 0.04134
237.00 0.03761
237.50 0.03388
238.00 0.03014
238.50 0.02725
239.00 0.02488
239.50 0.02250
240.00 0.02013
240.50 0.01796
241.00 0.01615
241.50 0.01434
242.00 0.01290
242.50 0.01196
243.00 0.01102
243.50 0.01008
244.00 0.00915
244.50 0.00821
245.00 0.00727
245.50 0.00631
246.00 0.00567
246.50 0.00527
247.00 0.00486
247.50 0.00446
248.00 0.00405
248.50 0.00365
249.00 0.00324
249.50 0.00284
250.00 0.00244
250.50 0.00225
251.00 0.00207
251.50 0.00190
252.00 0.00172
252.50 0.00154
253.00 0.00140
253.50 0.00130
254.00 0.00120
254.50 0.00111
255.00 0.00101
255.50 0.00091
256.00 0.00081
256.50 0.00074
257.00 0.00070
257.50 0.00065
258.00 0.00060
258.50 0.00056
259.00 0.00051
259.50 0.00046
260.00 0.00041
260.50 0.00038
261.00 0.00036
261.50 0.00033
262.00 0.00031
262.50 0.00028
263.00 0.00025
263.50 0.00024
264.00 0.00022
264.50 0.00020
265.00 0.00018
265.50 0.00016
266.00 0.00014
266.50 0.00013
267.00 0.00011
267.50 0.00010
268.00 0.00008
268.50 0.00007
269.00 0.00006
269.50 0.00005
270.00 0.00005
270.00 0.00005
270.50 0.00005
271.00 0.00006
271.50 0.00007
272.00 0.00008
272.50 0.00010
273.00 0.00011
273.50 0.00013
274.00 0.00014
274.50 0.00016
275.00 0.00018
275.50 0.00020
276.00 0.00022
276.50 0.00024
277.00 0.00025
277.50 0.00028
278.00 0.00031
278.50 0.00033
279.00 0.00036
279.50 0.00038
280.00 0.00041
280.50 0.00046
281.00 0.00051
281.50 0.00056
282.00 0.00060
282.50 0.00065
283.00 0.00070
283.50 0.00074
284.00 0.00081
284.50 0.00091
285.00 0.00101
285.50 0.00111
286.00 0.00120
286.50 0.00130
287.00 0.00140
287.50 0.00154
288.00 0.00172
288.50 0.00190
289.00 0.00207
289.50 0.00225
290.00 0.00244
290.50 0.00284
291.00 0.00324
291.50 0.00365
292.00 0.00405
292.50 0.00446
293.00 0.00486
293.50 0.00527
294.00 0.00567
294.50 0.00631
295.00 0.00727
295.50 0.00821
296.00 0.00915
296.50 0.01008
297.00 0.01102
297.50 0.01196
298.00 0.01290
298.50 0.01434
299.00 0.01615
299.50 0.01796
300.00 0.02013
300.50 0.02250
301.00 0.02488
301.50 0.02725
302.00 0.03014
302.50 0.03388
303.00 0.03761
303.50 0.04134
304.00 0.04680
304.50 0.05287
305.00 0.05896
305.50 0.06505
306.00 0.07114
306.50 0.07856
307.00 0.08639
307.50 0.09484
308.00 0.10772
308.50 0.12061
309.00 0.13350
309.50 0.14609
310.00 0.15859
310.50 0.17582
311.00 0.19583
311.50 0.21696
312.00 0.23910
312.50 0.26117
313.00 0.28629
313.50 0.31543
314.00 0.34436
314.50 0.37219
315.00 0.39993
315.50 0.43068
316.00 0.46134
316.50 0.49534
317.00 0.53054
317.50 0.56392
318.00 0.59626
318.50 0.63050
319.00 0.66560
319.50 0.70056
320.00 0.73458
320.50 0.76837
321.00 0.80204
321.50 0.83602
322.00 0.86984
322.50 0.90269
323.00 0.93269
323.50 0.96404
324.00 0.99635
324.50 1.02850
325.00 1.06050
325.50 1.09235
326.00 1.12404
326.50 1.15399
327.00 1.18238
327.50 1.20641
328.00 1.23326
328.50 1.26165
329.00 1.28993
329.50 1.31811
330.00 1.34618
330.50 1.37415
331.00 1.40125
331.50 1.42562
332.00 1.44790
332.50 1.46667
333.00 1.48613
333.50 1.50599
334.00 1.52577
334.50 1.54547
335.00 1.56508
335.50 1.58462
336.00 1.60407
336.50 1.61901
337.00 1.63206
337.50 1.64125
338.00 1.65121
338.50 1.66351
339.00 1.67580
339.50 1.68809
340.00 1.70036
340.50 1.71262
341.00 1.72005
341.50 1.72528
342.00 1.73052
342.50 1.73520
343.00 1.73902
343.50 1.74286
344.00 1.74673
344.50 1.75061
345.00 1.75451
345.50 1.75458
346.00 1.75457
346.50 1.75367
347.00 1.75097
347.50 1.74940
348.00 1.74875
348.50 1.74818
349.00 1.74769
349.50 1.74728
350.00 1.74696
350.50 1.74671
351.00 1.74655
351.50 1.74484
352.00 1.74215
352.50 1.73945
353.00 1.73730
353.50 1.73527
354.00 1.73400
354.50 1.73295
355.00 1.73204
355.50 1.73126
356.00 1.73001
356.50 1.72889
357.00 1.72774
357.50 1.72670
358.00 1.72582
358.50 1.72517
359.00 1.72466
359.50 1.72459
360.00 1.72468
