phi[deg] B[T]
0.00 1.42837
0.50 1.42808
1.00 1.42789
1.50 1.42782
2.00 1.42786
2.50 1.42801
3.00 1.42832
3.50 1.42873
4.00 1.42925
4.50 1.42989
5.00 1.43062
5.50 1.43143
6.00 1.43236
6.50 1.43330
7.00 1.43412
7.50 1.43553
8.00 1.43704
8.50 1.43866
9.00 1.43920
9.50 1.43901
10.00 1.43892
10.50 1.44042
11.00 1.44205
11.50 1.44376
12.00 1.44390
12.50 1.44320
13.00 1.44258
13.50 1.44103
14.00 1.43955
14.50 1.43814
15.00 1.43704
15.50 1.43605
16.00 1.43513
16.50 1.43325
17.00 1.43086
17.50 1.42854
18.00 1.42608
18.50 1.42180
19.00 1.41758
19.50 1.41457
20.00 1.41171
20.50 1.40889
21.00 1.40386
21.50 1.39858
22.00 1.39335
22.50 1.38629
23.00 1.37794
23.50 1.36962
24.00 1.36100
24.50 1.35225
25.00 1.34351
25.50 1.33358
26.00 1.32001
26.50 1.30645
27.00 1.29292
27.50 1.27940
28.00 1.26652
28.50 1.25387
29.00 1.23977
29.50 1.22523
30.00 1.21072
30.50 1.19670
31.00 1.18313
31.50 1.16859
32.00 1.15383
32.50 1.13924
33.00 1.12468
33.50 1.11015
34.00 1.09258
34.50 1.07484
35.00 1.05865
35.50 1.04246
36.00 1.02628
36.50 1.01011
37.00 0.99318
37.50 0.97469
38.00 0.95622
38.50 0.93776
39.00 0.91930
39.50 0.90047
40.00 0.88270
40.50 0.86518
41.00 0.84767
41.50 0.83017
42.00 0.81204
42.50 0.79553
43.00 0.77903
43.50 0.76247
44.00 0.74574
44.50 0.72901
45.00 0.71214
45.50 0.69558
46.00 0.67932
46.50 0.66304
47.00 0.64688
47.50 0.63082
48.00 0.61451
48.50 0.59705
49.00 0.58031
49.50 0.56416
50.00 0.54797
50.50 0.53141
51.00 0.51377
51.50 0.49668
52.00 0.48076
52.50 0.46477
53.00 0.44999
53.50 0.43576
54.00 0.41923
54.50 0.40263
55.00 0.38596
55.50 0.36934
56.00 0.35266
56.50 0.33596
57.00 0.31943
57.50 0.30285
58.00 0.28621
58.50 0.26950
59.00 0.25388
59.50 0.23825
60.00 0.22254
60.50 0.20631
61.00 0.19004
61.50 0.17373
62.00 0.15928
62.50 0.14626
63.00 0.13321
63.50 0.12100
64.00 0.11061
64.50 0.10029
65.00 0.08996
65.50 0.08113
66.00 0.07463
66.50 0.06811
67.00 0.06159
67.50 0.05559
68.00 0.05012
68.50 0.04465
69.00 0.04053
69.50 0.03706
70.00 0.03358
70.50 0.03010
71.00 0.02662
71.50 0.02416
72.00 0.02176
72.50 0.01943
73.00 0.01780
73.50 0.01618
74.00 0.01454
74.50 0.01291
75.00 0.01176
75.50 0.01075
76.00 0.00973
76.50 0.00872
77.00 0.00786
77.50 0.00703
78.00 0.00620
78.50 0.00568
79.00 0.00526
79.50 0.00483
80.00 0.00441
80.50 0.00395
81.00 0.00350
81.50 0.00305
82.00 0.00284
82.50 0.00262
83.00 0.00241
83.50 0.00220
84.00 0.00198
84.50 0.00176
85.00 0.00163
85.50 0.00154
86.00 0.00144
86.50 0.00134
87.00 0.00124
87.50 0.00115
88.00 0.00111
88.50 0.00107
89.00 0.00104
89.50 0.00100
90.00 0.00096
90.00 0.00096
90.50 0.00100
91.00 0.00104
91.50 0.00107
92.00 0.00111
92.50 0.00115
93.00 0.00124
93.50 0.00134
94.00 0.00144
94.50 0.00154
95.00 0.00163
95.50 0.00176
96.00 0.00198
96.50 0.00220
97.00 0.00241
97.50 0.00262
98.00 0.00284
98.50 0.00305
99.00 0.00350
99.50 0.00395
100.00 0.00441
100.50 0.00483
101.00 0.00526
101.50 0.00568
102.00 0.00620
102.50 0.00703
103.00 0.00786
103.50 0.00872
104.00 0.00973
104.50 0.01075
105.00 0.01176
105.50 0.01291
106.00 0.01454
106.50 0.01618
107.00 0.01780
107.50 0.01943
108.00 0.02176
108.50 0.02416
109.00 0.02662
109.50 0.03010
110.00 0.03358
110.50 0.03706
111.00 0.04053
111.50 0.04465
112.00 0.05012
112.50 0.05559
113.00 0.06159
113.50 0.06811
114.00 0.07463
114.50 0.08113
115.00 0.08996
115.50 0.10029
116.00 0.11061
116.50 0.12100
117.00 0.13321
117.50 0.14626
118.00 0.15928
118.50 0.17373
119.00 0.19004
119.50 0.20631
120.00 0.22254
120.50 0.23825
121.00 0.25388
121.50 0.26950
122.00 0.28621
122.50 0.30285
123.00 0.31943
123.50 0.33596
124.00 0.35266
124.50 0.36934
125.00 0.38596
125.50 0.40263
126.00 0.41923
126.50 0.43576
127.00 0.44999
127.50 0.46477
128.00 0.48076
128.50 0.49668
129.00 0.51377
129.50 0.53141
130.00 0.54797
130.50 0.56416
131.00 0.58031
131.50 0.59705
132.00 0.61451
132.50 0.63082
133.00 0.64688
133.50 0.66304
134.00 0.67932
134.50 0.69558
135.00 0.71214
135.50 0.72901
136.00 0.74574
136.50 0.76247
137.00 0.77903
137.50 0.79553
138.00 0.81204
138.50 0.83017
139.00 0.84767
139.50 0.86518
140.00 0.88270
140.50 0.90047
141.00 0.91930
141.50 0.93776
142.00 0.95622
142.50 0.97469
143.00 0.99318
143.50 1.01011
144.00 1.02628
144.50 1.04246
145.00 1.05865
145.50 1.07484
146.00 1.09258
146.50 1.11015
147.00 1.12468
147.50 1.13924
148.00 1.15383
148.50 1.16859
149.00 1.18313
149.50 1.19670
150.00 1.21072
150.50 1.22523
151.00 1.23977
151.50 1.25387
152.00 1.26652
152.50 1.27940
153.00 1.29292
153.50 1.30645
154.00 1.32001
154.50 1.33358
155.00 1.34351
155.50 1.35225
156.00 1.36100
156.50 1.36962
157.00 1.37794
157.50 1.38629
158.00 1.39335
158.50 1.39858
159.00 1.40386
159.50 1.40889
160.00 1.41171
160.50 1.41457
161.00 1.41758
161.50 1.42180
162.00 1.42608
162.50 1.42854
163.00 1.43086
163.50 1.43325
164.00 1.43513
164.50 1.43605
165.00 1.43704
165.50 1.43814
166.00 1.43955
166.50 1.44103
167.00 1.44258
167.50 1.44320
168.00 1.44390
168.50 1.44376
169.00 1.44205
169.50 1.44042
170.00 1.43892
170.50 1.43901
171.00 1.43920
171.50 1.43866
172.00 1.43704
172.50 1.43553
173.00 1.43412
173.50 1.43330
174.00 1.43236
174.50 1.43143
175.00 1.43062
175.50 1.42989
176.00 1.42925
176.50 1.42873
177.00 1.42832
177.50 1.42801
178.00 1.42786
178.50 1.42782
179.00 1.42789
179.50 1.42808
180.00 1.42837
180.00 1.42837
180.50 1.42808
181.00 1.42789
181.50 1.42782
182.00 1.42786
182.50 1.42801
183.00 1.42832
183.50 1.42873
184.00 1.42925
184.50 1.42989
185.00 1.43062
185.50 1.43143
186.00 1.43236
186.50 1.43330
187.00 1.43412
187.50 1.43553
188.00 1.43704
188.50 1.43866
189.00 1.43920
189.50 1.43901
190.00 1.43892
190.50 1.44042
191.00 1.44205
191.50 1.44376
192.00 1.44390
192.50 1.44320
193.00 1.44258
193.50 1.44103
194.00 1.43955
194.50 1.43814
195.00 1.43704
195.50 1.43605
196.00 1.43513
196.50 1.43325
197.00 1.43086
197.50 1.42854
198.00 1.42608
198.50 1.42180
199.00 1.41758
199.50 1.41457
200.00 1.41171
200.50 1.40889
201.00 1.40386
201.50 1.39858
202.00 1.39335
202.50 1.38629
203.00 1.37794
203.50 1.36962
204.00 1.36100
204.50 1.35225
205.00 1.34351
205.50 1.33358
206.00 1.32001
206.50 1.30645
207.00 1.29292
207.50 1.27940
208.00 1.26652
208.50 1.25387
209.00 1.23977
209.50 1.22523
210.00 1.21072
210.50 1.19670
211.00 1.18313
211.50 1.16859
212.00 1.15383
212.50 1.13924
213.00 1.12468
213.50 1.11015
214.00 1.09258
214.50 1.07484
215.00 1.05865
215.50 1.04246
216.00 1.02628
216.50 1.01011
217.00 0.99318
217.50 0.97469
218.00 0.95622
218.50 0.93776
219.00 0.91930
219.50 0.90047
220.00 0.88270
220.50 0.86518
221.00 0.84767
221.50 0.83017
222.00 0.81204
222.50 0.79553
223.00 0.77903
223.50 0.76247
224.00 0.74574
224.50 0.72901
225.00 0.71214
225.50 0.69558
226.00 0.67932
226.50 0.66304
227.00 0.64688
227.50 0.63082
228.00 0.61451
228.50 0.59705
229.00 0.58031
229.50 0.56416
230.00 0.54797
230.50 0.53141
231.00 0.51377
231.50 0.49668
232.00 0.48076
232.50 0.46477
233.00 0.44999
233.50 0.43576
234.00 0.41923
234.50 0.40263
235.00 0.38596
235.50 0.36934
236.00 0.35266
236.50 0.33596
237.00 0.31943
237.50 0.30285
238.00 0.28621
238.50 0.26950
239.00 0.25388
239.50 0.23825
240.00 0.22254
240.50 0.20631
241.00 0.19004
241.50 0.17373
242.00 0.15928
242.50 0.14626
243.00 0.13321
243.50 0.12100
244.00 0.11061
244.50 0.10029
245.00 0.08996
245.50 0.08113
246.00 0.07463
246.50 0.06811
247.00 0.06159
247.50 0.05559
248.00 0.05012
248.50 0.04465
249.00 0.04053
249.50 0.03706
250.00 0.03358
250.50 0.03010
251.00 0.02662
251.50 0.02416
252.00 0.02176
252.50 0.01943
253.00 0.01780
253.50 0.01618
254.00 0.01454
254.50 0.01291
255.00 0.01176
255.50 0.01075
256.00 0.00973
256.50 0.00872
257.00 0.00786
257.50 0.00703
258.00 0.00620
258.50 0.00568
259.00 0.00526
259.50 0.00483
260.00 0.00441
260.50 0.00395
261.00 0.00350
261.50 0.00305
262.00 0.00284
262.50 0.00262
263.00 0.00241
263.50 0.00220
264.00 0.00198
264.50 0.00176
265.00 0.00163
265.50 0.00154
266.00 0.00144
266.50 0.00134
267.00 0.00124
267.50 0.00115
268.00 0.00111
268.50 0.00107
269.00 0.00104
269.50 0.00100
270.00 0.00096
270.00 0.00096
270.50 0.00100
271.00 0.00104
271.50 0.00107
272.00 0.00111
272.50 0.00115
273.00 0.00124
273.50 0.00134
274.00 0.00144
274.50 0.00154
275.00 0.00163
275.50 0.00176
276.00 0.00198
276.50 0.00220
277.00 0.00241
277.50 0.00262
278.00 0.00284
278.50 0.00305
279.00 0.00350
279.50 0.00395
280.00 0.00441
280.50 0.00483
281.00 0.00526
281.50 0.00568
282.00 0.00620
282.50 0.00703
283.00 0.00786
283.50 0.00872
284.00 0.00973
284.50 0.01075
285.00 0.01176
285.50 0.01291
286.00 0.01454
286.50 0.01618
287.00 0.01780
287.50 0.01943
288.00 0.02176
288.50 0.02416
289.00 0.02662
289.50 0.03010
290.00 0.03358
290.50 0.03706
291.00 0.04053
291.50 0.04465
292.00 0.05012
292.50 0.05559
293.00 0.06159
293.50 0.06811
294.00 0.07463
294.50 0.08113
295.00 0.08996
295.50 0.10029
296.00 0.11061
296.50 0.12100
297.00 0.13321
297.50 0.14626
298.00 0.15928
298.50 0.17373
299.00 0.19004
299.50 0.20631
300.00 0.22254
300.50 0.23825
301.00 0.25388
301.50 0.26950
302.00 0.28621
302.50 0.30285
303.00 0.31943
303.50 0.33596
304.00 0.35266
304.50 0.36934
305.00 0.38596
305.50 0.40263
306.00 0.41923
306.50 0.43576
307.00 0.44999
307.50 0.46477
308.00 0.48076
308.50 0.49668
309.00 0.51377
309.50 0.53141
310.00 0.54797
310.50 0.56416
311.00 0.58031
311.50 0.59705
312.00 0.61451
312.50 0.63082
313.00 0.64688
313.50 0.66304
314.00 0.67932
314.50 0.69558
315.00 0.71214
315.50 0.72901
316.00 0.74574
316.50 0.76247
317.00 0.77903
317.50 0.79553
318.00 0.81204
318.50 0.83017
319.00 0.84767
319.50 0.86518
320.00 0.88270
320.50 0.90047
321.00 0.91930
321.50 0.93776
322.00 0.95622
322.50 0.97469
323.00 0.99318
323.50 1.01011
324.00 1.02628
324.50 1.04246
325.00 1.05865
325.50 1.07484
326.00 1.09258
326.50 1.11015
327.00 1.12468
327.50 1.13924
328.00 1.15383
328.50 1.16859
329.00 1.18313
329.50 1.19670
330.00 1.21072
330.50 1.22523
331.00 1.23977
331.50 1.25387
332.00 1.26652
332.50 1.27940
333.00 1.29292
333.50 1.30645
334.00 1.32001
334.50 1.33358
335.00 1.34351
335.50 1.35225
336.00 1.36100
336.50 1.36962
337.00 1.37794
337.50 1.38629
338.00 1.39335
338.50 1.39858
339.00 1.40386
339.50 1.40889
340.00 1.41171
340.50 1.41457
341.00 1.41758
341.50 1.42180
342.00 1.42608
342.50 1.42854
343.00 1.43086
343.50 1.43325
344.00 1.43513
344.50 1.43605
345.00 1.43704
345.50 1.43814
346.00 1.43955
346.50 1.44103
347.00 1.44258
347.50 1.44320
348.00 1.44390
348.50 1.44376
349.00 1.44205
349.50 1.44042
350.00 1.43892
350.50 1.43901
351.00 1.43920
351.50 1.43866
352.00 1.43704
352.50 1.43553
353.00 1.43412
353.50 1.43330
354.00 1.43236
354.50 1.43143
355.00 1.43062
355.50 1.42989
356.00 1.42925
356.50 1.42873
357.00 1.42832
357.50 1.42801
358.00 1.42786
358.50 1.42782
359.00 1.42789
359.50 1.42808
360.00 1.42837
