phi[deg] B[T]
0.00 1.35116
0.50 1.35048
1.00 1.34998
1.50 1.34989
2.00 1.34964
2.50 1.34898
3.00 1.34791
3.50 1.34649
4.00 1.34533
4.50 1.34448
5.00 1.34366
5.50 1.34033
6.00 1.33690
6.50 1.33457
7.00 1.33301
7.50 1.32974
8.00 1.32474
8.50 1.31973
9.00 1.31474
9.50 1.30956
10.00 1.30309
10.50 1.29656
11.00 1.28997
11.50 1.28334
12.00 1.27693
12.50 1.26518
13.00 1.25231
13.50 1.23935
14.00 1.22630
14.50 1.21287
15.00 1.19700
15.50 1.18097
16.00 1.16477
16.50 1.14809
17.00 1.13043
17.50 1.10841
18.00 1.08309
18.50 1.05761
19.00 1.03195
19.50 1.00706
20.00 0.97929
20.50 0.95128
21.00 0.92303
21.50 0.89255
22.00 0.86104
22.50 0.82459
23.00 0.78790
23.50 0.75100
24.00 0.71538
24.50 0.67829
25.00 0.64193
25.50 0.60764
26.00 0.57315
26.50 0.53848
27.00 0.50361
27.50 0.46603
28.00 0.42401
28.50 0.38469
29.00 0.35186
29.50 0.32711
30.00 0.30231
30.50 0.27747
31.00 0.25259
31.50 0.22766
32.00 0.20188
32.50 0.17759
33.00 0.16297
33.50 0.14942
34.00 0.13675
34.50 0.12409
35.00 0.11143
35.50 0.09878
36.00 0.08633
36.50 0.07851
37.00 0.07067
37.50 0.06359
38.00 0.05795
38.50 0.05230
39.00 0.04667
39.50 0.04140
40.00 0.03729
40.50 0.03368
41.00 0.03077
41.50 0.02786
42.00 0.02496
42.50 0.02206
43.00 0.01983
43.50 0.01811
44.00 0.01639
44.50 0.01466
45.00 0.01294
45.50 0.01188
46.00 0.01082
46.50 0.00977
47.00 0.00871
47.50 0.00766
48.00 0.00704
48.50 0.00645
49.00 0.00585
49.50 0.00526
50.00 0.00466
50.50 0.00418
51.00 0.00376
51.50 0.00342
52.00 0.00315
52.50 0.00288
53.00 0.00261
53.50 0.00234
54.00 0.00208
54.50 0.00184
55.00 0.00171
55.50 0.00159
56.00 0.00147
56.50 0.00136
57.00 0.00124
57.50 0.00112
58.00 0.00100
58.50 0.00091
59.00 0.00085
59.50 0.00080
60.00 0.00075
60.50 0.00070
61.00 0.00065
61.50 0.00060
62.00 0.00054
62.50 0.00051
63.00 0.00049
63.50 0.00046
64.00 0.00044
64.50 0.00042
65.00 0.00040
65.50 0.00038
66.00 0.00036
66.50 0.00035
67.00 0.00034
67.50 0.00032
68.00 0.00031
68.50 0.00030
69.00 0.00029
69.50 0.00028
70.00 0.00027
70.50 0.00027
71.00 0.00026
71.50 0.00025
72.00 0.00024
72.50 0.00024
73.00 0.00023
73.50 0.00022
74.00 0.00021
74.50 0.00021
75.00 0.00020
75.50 0.00019
76.00 0.00019
76.50 0.00018
77.00 0.00017
77.50 0.00017
78.00 0.00016
78.50 0.00015
79.00 0.00015
79.50 0.00014
80.00 0.00013
80.50 0.00013
81.00 0.00012
81.50 0.00011
82.00 0.00011
82.50 0.00010
83.00 0.00010
83.50 0.00009
84.00 0.00008
84.50 0.00007
85.00 0.00007
85.50 0.00006
86.00 0.00006
86.50 0.00005
87.00 0.00004
87.50 0.00004
88.00 0.00003
88.50 0.00003
89.00 0.00003
89.50 0.00002
90.00 0.00002
90.00 0.00002
90.50 0.00002
91.00 0.00003
91.50 0.00003
92.00 0.00003
92.50 0.00004
93.00 0.00004
93.50 0.00005
94.00 0.00006
94.50 0.00006
95.00 0.00007
95.50 0.00007
96.00 0.00008
96.50 0.00009
97.00 0.00010
97.50 0.00010
98.00 0.00011
98.50 0.00011
99.00 0.00012
99.50 0.00013
100.00 0.00013
100.50 0.00014
101.00 0.00015
101.50 0.00015
102.00 0.00016
102.50 0.00017
103.00 0.00017
103.50 0.00018
104.00 0.00019
104.50 0.00019
105.00 0.00020
105.50 0.00021
106.00 0.00021
106.50 0.00022
107.00 0.00023
107.50 0.00024
108.00 0.00024
108.50 0.00025
109.00 0.00026
109.50 0.00027
110.00 0.00027
110.50 0.00028
111.00 0.00029
111.50 0.00030
112.00 0.00031
112.50 0.00032
113.00 0.00034
113.50 0.00035
114.00 0.00036
114.50 0.00038
115.00 0.00040
115.50 0.00042
116.00 0.00044
116.50 0.00046
117.00 0.00049
117.50 0.00051
118.00 0.00054
118.50 0.00060
119.00 0.00065
119.50 0.00070
120.00 0.00075
120.50 0.00080
121.00 0.00085
121.50 0.00091
122.00 0.00100
122.50 0.00112
123.00 0.00124
123.50 0.00136
124.00 0.00147
124.50 0.00159
125.00 0.00171
125.50 0.00184
126.00 0.00208
126.50 0.00234
127.00 0.00261
127.50 0.00288
128.00 0.00315
128.50 0.00342
129.00 0.00376
129.50 0.00418
130.00 0.00466
130.50 0.00526
131.00 0.00585
131.50 0.00645
132.00 0.00704
132.50 0.00766
133.00 0.00871
133.50 0.00977
134.00 0.01082
134.50 0.01188
135.00 0.01294
135.50 0.01466
136.00 0.01639
136.50 0.01811
137.00 0.01983
137.50 0.02206
138.00 0.02496
138.50 0.02786
139.00 0.03077
139.50 0.03368
140.00 0.03729
140.50 0.04140
141.00 0.04667
141.50 0.05230
142.00 0.05795
142.50 0.06359
143.00 0.07067
143.50 0.07851
144.00 0.08633
144.50 0.09878
145.00 0.11143
145.50 0.12409
146.00 0.13675
146.50 0.14942
147.00 0.16297
147.50 0.17759
148.00 0.20188
148.50 0.22766
149.00 0.25259
149.50 0.27747
150.00 0.30231
150.50 0.32711
151.00 0.35186
151.50 0.38469
152.00 0.42401
152.50 0.46603
153.00 0.50361
153.50 0.53848
154.00 0.57315
154.50 0.60764
155.00 0.64193
155.50 0.67829
156.00 0.71538
156.50 0.75100
157.00 0.78790
157.50 0.82459
158.00 0.86104
158.50 0.89255
159.00 0.92303
159.50 0.95128
160.00 0.97929
160.50 1.00706
161.00 1.03195
161.50 1.05761
162.00 1.08309
162.50 1.10841
163.00 1.13043
163.50 1.14809
164.00 1.16477
164.50 1.18097
165.00 1.19700
165.50 1.21287
166.00 1.22630
166.50 1.23935
167.00 1.25231
167.50 1.26518
168.00 1.27693
168.50 1.28334
169.00 1.28997
169.50 1.29656
170.00 1.30309
170.50 1.30956
171.00 1.31474
171.50 1.31973
172.00 1.32474
172.50 1.32974
173.00 1.33301
173.50 1.33457
174.00 1.33690
174.50 1.34033
175.00 1.34366
175.50 1.34448
176.00 1.34533
176.50 1.34649
177.00 1.34791
177.50 1.34898
178.00 1.34964
178.50 1.34989
179.00 1.34998
179.50 1.35048
180.00 1.35116
180.00 1.35116
180.50 1.35048
181.00 1.34998
181.50 1.34989
182.00 1.34964
182.50 1.34898
183.00 1.34791
183.50 1.34649
184.00 1.34533
184.50 1.34448
185.00 1.34366
185.50 1.34033
186.00 1.33690
186.50 1.33457
187.00 1.33301
187.50 1.32974
188.00 1.32474
188.50 1.31973
189.00 1.31474
189.50 1.30956
190.00 1.30309
190.50 1.29656
191.00 1.28997
191.50 1.28334
192.00 1.27693
192.50 1.26518
193.00 1.25231
193.50 1.23935
194.00 1.22630
194.50 1.21287
195.00 1.19700
195.50 1.18097
196.00 1.16477
196.50 1.14809
197.00 1.13043
197.50 1.10841
198.00 1.08309
198.50 1.05761
199.00 1.03195
199.50 1.00706
200.00 0.97929
200.50 0.95128
201.00 0.92303
201.50 0.89255
202.00 0.86104
202.50 0.82459
203.00 0.78790
203.50 0.75100
204.00 0.71538
204.50 0.67829
205.00 0.64193
205.50 0.60764
206.00 0.57315
206.50 0.53848
207.00 0.50361
207.50 0.46603
208.00 0.42401
208.50 0.38469
209.00 0.35186
209.50 0.32711
210.00 0.30231
210.50 0.27747
211.00 0.25259
211.50 0.22766
212.00 0.20188
212.50 0.17759
213.00 0.16297
213.50 0.14942
214.00 0.13675
214.50 0.12409
215.00 0.11143
215.50 0.09878
216.00 0.08633
216.50 0.07851
217.00 0.07067
217.50 0.06359
218.00 0.05795
218.50 0.05230
219.00 0.04667
219.50 0.04140
220.00 0.03729
220.50 0.03368
221.00 0.03077
221.50 0.02786
222.00 0.02496
222.50 0.02206
223.00 0.01983
223.50 0.01811
224.00 0.01639
224.50 0.01466
225.00 0.01294
225.50 0.01188
226.00 0.01082
226.50 0.00977
227.00 0.00871
227.50 0.00766
228.00 0.00704
228.50 0.00645
229.00 0.00585
229.50 0.00526
230.00 0.00466
230.50 0.00418
231.00 0.00376
231.50 0.00342
232.00 0.00315
232.50 0.00288
233.00 0.00261
233.50 0.00234
234.00 0.00208
234.50 0.00184
235.00 0.00171
235.50 0.00159
236.00 0.00147
236.50 0.00136
237.00 0.00124
237.50 0.00112
238.00 0.00100
238.50 0.00091
239.00 0.00085
239.50 0.00080
240.00 0.00075
240.50 0.00070
241.00 0.00065
241.50 0.00060
242.00 0.00054
242.50 0.00051
243.00 0.00049
243.50 0.00046
244.00 0.00044
244.50 0.00042
245.00 0.00040
245.50 0.00038
246.00 0.00036
246.50 0.00035
247.00 0.00034
247.50 0.00032
248.00 0.00031
248.50 0.00030
249.00 0.00029
249.50 0.00028
250.00 0.00027
250.50 0.00027
251.00 0.00026
251.50 0.00025
252.00 0.00024
252.50 0.00024
253.00 0.00023
253.50 0.00022
254.00 0.00021
254.50 0.00021
255.00 0.00020
255.50 0.00019
256.00 0.00019
256.50 0.00018
257.00 0.00017
257.50 0.00017
258.00 0.00016
258.50 0.00015
259.00 0.00015
259.50 0.00014
260.00 0.00013
260.50 0.00013
261.00 0.00012
261.50 0.00011
262.00 0.00011
262.50 0.00010
263.00 0.00010
263.50 0.00009
264.00 0.00008
264.50 0.00007
265.00 0.00007
265.50 0.00006
266.00 0.00006
266.50 0.00005
267.00 0.00004
267.50 0.00004
268.00 0.00003
268.50 0.00003
269.00 0.00003
269.50 0.00002
270.00 0.00002
270.00 0.00002
270.50 0.00002
271.00 0.00003
271.50 0.00003
272.00 0.00003
272.50 0.00004
273.00 0.00004
273.50 0.00005
274.00 0.00006
274.50 0.00006
275.00 0.00007
275.50 0.00007
276.00 0.00008
276.50 0.00009
277.00 0.00010
277.50 0.00010
278.00 0.00011
278.50 0.00011
279.00 0.00012
279.50 0.00013
280.00 0.00013
280.50 0.00014
281.00 0.00015
281.50 0.00015
282.00 0.00016
282.50 0.00017
283.00 0.00017
283.50 0.00018
284.00 0.00019
284.50 0.00019
285.00 0.00020
285.50 0.00021
286.00 0.00021
286.50 0.00022
287.00 0.00023
287.50 0.00024
288.00 0.00024
288.50 0.00025
289.00 0.00026
289.50 0.00027
290.00 0.00027
290.50 0.00028
291.00 0.00029
291.50 0.00030
292.00 0.00031
292.50 0.00032
293.00 0.00034
293.50 0.00035
294.00 0.00036
294.50 0.00038
295.00 0.00040
295.50 0.00042
296.00 0.00044
296.50 0.00046
297.00 0.00049
297.50 0.00051
298.00 0.00054
298.50 0.00060
299.00 0.00065
299.50 0.00070
300.00 0.00075
300.50 0.00080
301.00 0.00085
301.50 0.00091
302.00 0.00100
302.50 0.00112
303.00 0.00124
303.50 0.00136
304.00 0.00147
304.50 0.00159
305.00 0.00171
305.50 0.00184
306.00 0.00208
306.50 0.00234
307.00 0.00261
307.50 0.00288
308.00 0.00315
308.50 0.00342
309.00 0.00376
309.50 0.00418
310.00 0.00466
310.50 0.00526
311.00 0.00585
311.50 0.00645
312.00 0.00704
312.50 0.00766
313.00 0.00871
313.50 0.00977
314.00 0.01082
314.50 0.01188
315.00 0.01294
315.50 0.01466
316.00 0.01639
316.50 0.01811
317.00 0.01983
317.50 0.02206
318.00 0.02496
318.50 0.02786
319.00 0.03077
319.50 0.03368
320.00 0.03729
320.50 0.04140
321.00 0.04667
321.50 0.05230
322.00 0.05795
322.50 0.06359
323.00 0.07067
323.50 0.07851
324.00 0.08633
324.50 0.09878
325.00 0.11143
325.50 0.12409
326.00 0.13675
326.50 0.14942
327.00 0.16297
327.50 0.17759
328.00 0.20188
328.50 0.22766
329.00 0.25259
329.50 0.27747
330.00 0.30231
330.50 0.32711
331.00 0.35186
331.50 0.38469
332.00 0.42401
332.50 0.46603
333.00 0.50361
333.50 0.53848
334.00 0.57315
334.50 0.60764
335.00 0.64193
335.50 0.67829
336.00 0.71538
336.50 0.75100
337.00 0.78790
337.50 0.82459
338.00 0.86104
338.50 0.89255
339.00 0.92303
339.50 0.95128
340.00 0.97929
340.50 1.00706
341.00 1.03195
341.50 1.05761
342.00 1.08309
342.50 1.10841
343.00 1.13043
343.50 1.14809
344.00 1.16477
344.50 1.18097
345.00 1.19700
345.50 1.21287
346.00 1.22630
346.50 1.23935
347.00 1.25231
347.50 1.26518
348.00 1.27693
348.50 1.28334
349.00 1.28997
349.50 1.29656
350.00 1.30309
350.50 1.30956
351.00 1.31474
351.50 1.31973
352.00 1.32474
352.50 1.32974
353.00 1.33301
353.50 1.33457
354.00 1.33690
354.50 1.34033
355.00 1.34366
355.50 1.34448
356.00 1.34533
356.50 1.34649
357.00 1.34791
357.50 1.34898
358.00 1.34964
358.50 1.34989
359.00 1.34998
359.50 1.35048
360.00 1.35116
