phi[deg] B[T]
0.00 1.42238
0.50 1.42161
1.00 1.42094
1.50 1.42040
2.00 1.41950
2.50 1.41885
3.00 1.41831
3.50 1.41720
4.00 1.41624
4.50 1.41604
5.00 1.41596
5.50 1.41610
6.00 1.41638
6.50 1.41679
7.00 1.41739
7.50 1.41815
8.00 1.41982
8.50 1.42161
9.00 1.42338
9.50 1.42438
10.00 1.42548
10.50 1.42705
11.00 1.42882
11.50 1.43070
12.00 1.43129
12.50 1.43169
13.00 1.43173
13.50 1.43126
14.00 1.43089
14.50 1.43045
15.00 1.42993
15.50 1.42950
16.00 1.42911
16.50 1.42876
17.00 1.42890
17.50 1.42945
18.00 1.42940
18.50 1.42890
19.00 1.42848
19.50 1.42898
20.00 1.43010
20.50 1.43130
21.00 1.43008
21.50 1.42757
22.00 1.42524
22.50 1.42336
23.00 1.42153
23.50 1.41793
24.00 1.41100
24.50 1.40409
25.00 1.39455
25.50 1.38400
26.00 1.37350
26.50 1.36224
27.00 1.35097
27.50 1.33933
28.00 1.32679
28.50 1.31431
29.00 1.30134
29.50 1.28790
30.00 1.27451
30.50 1.26245
31.00 1.25075
31.50 1.23898
32.00 1.22357
32.50 1.20819
33.00 1.19285
33.50 1.17996
34.00 1.16768
34.50 1.15212
35.00 1.13368
35.50 1.11458
36.00 1.09545
36.50 1.07606
37.00 1.05356
37.50 1.03105
38.00 1.00703
38.50 0.98282
39.00 0.95861
39.50 0.93444
40.00 0.91015
40.50 0.88457
41.00 0.85937
41.50 0.83423
42.00 0.80925
42.50 0.78443
43.00 0.75958
43.50 0.73499
44.00 0.71059
44.50 0.68643
45.00 0.66218
45.50 0.63875
46.00 0.61610
46.50 0.59500
47.00 0.57405
47.50 0.55607
48.00 0.53857
48.50 0.52285
49.00 0.50920
49.50 0.49585
50.00 0.48785
50.50 0.48046
51.00 0.46958
51.50 0.45872
52.00 0.44787
52.50 0.44110
53.00 0.43706
53.50 0.43107
54.00 0.41947
54.50 0.40657
55.00 0.39355
55.50 0.38043
56.00 0.36769
56.50 0.35484
57.00 0.33864
57.50 0.32012
58.00 0.30024
58.50 0.27662
59.00 0.25287
59.50 0.22899
60.00 0.20877
60.50 0.18964
61.00 0.16976
61.50 0.14972
62.00 0.12963
62.50 0.11055
63.00 0.09883
63.50 0.08707
64.00 0.07387
64.50 0.06066
65.00 0.05309
65.50 0.04691
66.00 0.04072
66.50 0.03454
67.00 0.02826
67.50 0.02485
68.00 0.02241
68.50 0.01997
69.00 0.01753
69.50 0.01510
70.00 0.01267
70.50 0.01025
71.00 0.00858
71.50 0.00772
72.00 0.00686
72.50 0.00600
73.00 0.00514
73.50 0.00442
74.00 0.00398
74.50 0.00355
75.00 0.00316
75.50 0.00285
76.00 0.00261
76.50 0.00237
77.00 0.00213
77.50 0.00197
78.00 0.00185
78.50 0.00171
79.00 0.00157
79.50 0.00147
80.00 0.00138
80.50 0.00129
81.00 0.00122
81.50 0.00115
82.00 0.00109
82.50 0.00102
83.00 0.00097
83.50 0.00092
84.00 0.00087
84.50 0.00083
85.00 0.00078
85.50 0.00075
86.00 0.00072
86.50 0.00068
87.00 0.00065
87.50 0.00063
88.00 0.00061
88.50 0.00059
89.00 0.00058
89.50 0.00057
90.00 0.00057
90.00 0.00057
90.50 0.00057
91.00 0.00058
91.50 0.00059
92.00 0.00061
92.50 0.00063
93.00 0.00065
93.50 0.00068
94.00 0.00072
94.50 0.00075
95.00 0.00078
95.50 0.00083
96.00 0.00087
96.50 0.00092
97.00 0.00097
97.50 0.00102
98.00 0.00109
98.50 0.00115
99.00 0.00122
99.50 0.00129
100.00 0.00138
100.50 0.00147
101.00 0.00157
101.50 0.00171
102.00 0.00185
102.50 0.00197
103.00 0.00213
103.50 0.00237
104.00 0.00261
104.50 0.00285
105.00 0.00316
105.50 0.00355
106.00 0.00398
106.50 0.00442
107.00 0.00514
107.50 0.00600
108.00 0.00686
108.50 0.00772
109.00 0.00858
109.50 0.01025
110.00 0.01267
110.50 0.01510
111.00 0.01753
111.50 0.01997
112.00 0.02241
112.50 0.02485
113.00 0.02826
113.50 0.03454
114.00 0.04072
114.50 0.04691
115.00 0.05309
115.50 0.06066
116.00 0.07387
116.50 0.08707
117.00 0.09883
117.50 0.11055
118.00 0.12963
118.50 0.14972
119.00 0.16976
119.50 0.18964
120.00 0.20877
120.50 0.22899
121.00 0.25287
121.50 0.27662
122.00 0.30024
122.50 0.32012
123.00 0.33864
123.50 0.35484
124.00 0.36769
124.50 0.38043
125.00 0.39355
125.50 0.40657
126.00 0.41947
126.50 0.43107
127.00 0.43706
127.50 0.44110
128.00 0.44787
128.50 0.45872
129.00 0.46958
129.50 0.48046
130.00 0.48785
130.50 0.49585
131.00 0.50920
131.50 0.52285
132.00 0.53857
132.50 0.55607
133.00 0.57405
133.50 0.59500
134.00 0.61610
134.50 0.63875
135.00 0.66218
135.50 0.68643
136.00 0.71059
136.50 0.73499
137.00 0.75958
137.50 0.78443
138.00 0.80925
138.50 0.83423
139.00 0.85937
139.50 0.88457
140.00 0.91015
140.50 0.93444
141.00 0.95861
141.50 0.98282
142.00 1.00703
142.50 1.03105
143.00 1.05356
143.50 1.07606
144.00 1.09545
144.50 1.11458
145.00 1.13368
145.50 1.15212
146.00 1.16768
146.50 1.17996
147.00 1.19285
147.50 1.20819
148.00 1.22357
148.50 1.23898
149.00 1.25075
149.50 1.26245
150.00 1.27451
150.50 1.28790
151.00 1.30134
151.50 1.31431
152.00 1.32679
152.50 1.33933
153.00 1.35097
153.50 1.36224
154.00 1.37350
154.50 1.38400
155.00 1.39455
155.50 1.40409
156.00 1.41100
156.50 1.41793
157.00 1.42153
157.50 1.42336
158.00 1.42524
158.50 1.42757
159.00 1.43008
159.50 1.43130
160.00 1.43010
160.50 1.42898
161.00 1.42848
161.50 1.42890
162.00 1.42940
162.50 1.42945
163.00 1.42890
163.50 1.42876
164.00 1.42911
164.50 1.42950
165.00 1.42993
165.50 1.43045
166.00 1.43089
166.50 1.43126
167.00 1.43173
167.50 1.43169
168.00 1.43129
168.50 1.43070
169.00 1.42882
169.50 1.42705
170.00 1.42548
170.50 1.42438
171.00 1.42338
171.50 1.42161
172.00 1.41982
172.50 1.41815
173.00 1.41739
173.50 1.41679
174.00 1.41638
174.50 1.41610
175.00 1.41596
175.50 1.41604
176.00 1.41624
176.50 1.41720
177.00 1.41831
177.50 1.41885
178.00 1.41950
178.50 1.42040
179.00 1.42094
179.50 1.42161
180.00 1.42238
180.00 1.42238
180.50 1.42161
181.00 1.42094
181.50 1.42040
182.00 1.41950
182.50 1.41885
183.00 1.41831
183.50 1.41720
184.00 1.41624
184.50 1.41604
185.00 1.41596
185.50 1.41610
186.00 1.41638
186.50 1.41679
187.00 1.41739
187.50 1.41815
188.00 1.41982
188.50 1.42161
189.00 1.42338
189.50 1.42438
190.00 1.42548
190.50 1.42705
191.00 1.42882
191.50 1.43070
192.00 1.43129
192.50 1.43169
193.00 1.43173
193.50 1.43126
194.00 1.43089
194.50 1.43045
195.00 1.42993
195.50 1.42950
196.00 1.42911
196.50 1.42876
197.00 1.42890
197.50 1.42945
198.00 1.42940
198.50 1.42890
199.00 1.42848
199.50 1.42898
200.00 1.43010
200.50 1.43130
201.00 1.43008
201.50 1.42757
202.00 1.42524
202.50 1.42336
203.00 1.42153
203.50 1.41793
204.00 1.41100
204.50 1.40409
205.00 1.39455
205.50 1.38400
206.00 1.37350
206.50 1.36224
207.00 1.35097
207.50 1.33933
208.00 1.32679
208.50 1.31431
209.00 1.30134
209.50 1.28790
210.00 1.27451
210.50 1.26245
211.00 1.25075
211.50 1.23898
212.00 1.22357
212.50 1.20819
213.00 1.19285
213.50 1.17996
214.00 1.16768
214.50 1.15212
215.00 1.13368
215.50 1.11458
216.00 1.09545
216.50 1.07606
217.00 1.05356
217.50 1.03105
218.00 1.00703
218.50 0.98282
219.00 0.95861
219.50 0.93444
220.00 0.91015
220.50 0.88457
221.00 0.85937
221.50 0.83423
222.00 0.80925
222.50 0.78443
223.00 0.75958
223.50 0.73499
224.00 0.71059
224.50 0.68643
225.00 0.66218
225.50 0.63875
226.00 0.61610
226.50 0.59500
227.00 0.57405
227.50 0.55607
228.00 0.53857
228.50 0.52285
229.00 0.50920
229.50 0.49585
230.00 0.48785
230.50 0.48046
231.00 0.46958
231.50 0.45872
232.00 0.44787
232.50 0.44110
233.00 0.43706
233.50 0.43107
234.00 0.41947
234.50 0.40657
235.00 0.39355
235.50 0.38043
236.00 0.36769
236.50 0.35484
237.00 0.33864
237.50 0.32012
238.00 0.30024
238.50 0.27662
239.00 0.25287
239.50 0.22899
240.00 0.20877
240.50 0.18964
241.00 0.16976
241.50 0.14972
242.00 0.12963
242.50 0.11055
243.00 0.09883
243.50 0.08707
244.00 0.07387
244.50 0.06066
245.00 0.05309
245.50 0.04691
246.00 0.04072
246.50 0.03454
247.00 0.02826
247.50 0.02485
248.00 0.02241
248.50 0.01997
249.00 0.01753
249.50 0.01510
250.00 0.01267
250.50 0.01025
251.00 0.00858
251.50 0.00772
252.00 0.00686
252.50 0.00600
253.00 0.00514
253.50 0.00442
254.00 0.00398
254.50 0.00355
255.00 0.00316
255.50 0.00285
256.00 0.00261
256.50 0.00237
257.00 0.00213
257.50 0.00197
258.00 0.00185
258.50 0.00171
259.00 0.00157
259.50 0.00147
260.00 0.00138
260.50 0.00129
261.00 0.00122
261.50 0.00115
262.00 0.00109
262.50 0.00102
263.00 0.00097
263.50 0.00092
264.00 0.00087
264.50 0.00083
265.00 0.00078
265.50 0.00075
266.00 0.00072
266.50 0.00068
267.00 0.00065
267.50 0.00063
268.00 0.00061
268.50 0.00059
269.00 0.00058
269.50 0.00057
270.00 0.00057
270.00 0.00057
270.50 0.00057
271.00 0.00058
271.50 0.00059
272.00 0.00061
272.50 0.00063
273.00 0.00065
273.50 0.00068
274.00 0.00072
274.50 0.00075
275.00 0.00078
275.50 0.00083
276.00 0.00087
276.50 0.00092
277.00 0.00097
277.50 0.00102
278.00 0.00109
278.50 0.00115
279.00 0.00122
279.50 0.00129
280.00 0.00138
280.50 0.00147
281.00 0.00157
281.50 0.00171
282.00 0.00185
282.50 0.00197
283.00 0.00213
283.50 0.00237
284.00 0.00261
284.50 0.00285
285.00 0.00316
285.50 0.00355
286.00 0.00398
286.50 0.00442
287.00 0.00514
287.50 0.00600
288.00 0.00686
288.50 0.00772
289.00 0.00858
289.50 0.01025
290.00 0.01267
290.50 0.01510
291.00 0.01753
291.50 0.01997
292.00 0.02241
292.50 0.02485
293.00 0.02826
293.50 0.03454
294.00 0.04072
294.50 0.04691
295.00 0.05309
295.50 0.06066
296.00 0.07387
296.50 0.08707
297.00 0.09883
297.50 0.11055
298.00 0.12963
298.50 0.14972
299.00 0.16976
299.50 0.18964
300.00 0.20877
300.50 0.22899
301.00 0.25287
301.50 0.27662
302.00 0.30024
302.50 0.32012
303.00 0.33864
303.50 0.35484
304.00 0.36769
304.50 0.38043
305.00 0.39355
305.50 0.40657
306.00 0.41947
306.50 0.43107
307.00 0.43706
307.50 0.44110
308.00 0.44787
308.50 0.45872
309.00 0.46958
309.50 0.48046
310.00 0.48785
310.50 0.49585
311.00 0.50920
311.50 0.52285
312.00 0.53857
312.50 0.55607
313.00 0.57405
313.50 0.59500
314.00 0.61610
314.50 0.63875
315.00 0.66218
315.50 0.68643
316.00 0.71059
316.50 0.73499
317.00 0.75958
317.50 0.78443
318.00 0.80925
318.50 0.83423
319.00 0.85937
319.50 0.88457
320.00 0.91015
320.50 0.93444
321.00 0.95861
321.50 0.98282
322.00 1.00703
322.50 1.03105
323.00 1.05356
323.50 1.07606
324.00 1.09545
324.50 1.11458
325.00 1.13368
325.50 1.15212
326.00 1.16768
326.50 1.17996
327.00 1.19285
327.50 1.20819
328.00 1.22357
328.50 1.23898
329.00 1.25075
329.50 1.26245
330.00 1.27451
330.50 1.28790
331.00 1.30134
331.50 1.31431
332.00 1.32679
332.50 1.33933
333.00 1.35097
333.50 1.36224
334.00 1.37350
334.50 1.38400
335.00 1.39455
335.50 1.40409
336.00 1.41100
336.50 1.41793
337.00 1.42153
337.50 1.42336
338.00 1.42524
338.50 1.42757
339.00 1.43008
339.50 1.43130
340.00 1.43010
340.50 1.42898
341.00 1.42848
341.50 1.42890
342.00 1.42940
342.50 1.42945
343.00 1.42890
343.50 1.42876
344.00 1.42911
344.50 1.42950
345.00 1.42993
345.50 1.43045
346.00 1.43089
346.50 1.43126
347.00 1.43173
347.50 1.43169
348.00 1.43129
348.50 1.43070
349.00 1.42882
349.50 1.42705
350.00 1.42548
350.50 1.42438
351.00 1.42338
351.50 1.42161
352.00 1.41982
352.50 1.41815
353.00 1.41739
353.50 1.41679
354.00 1.41638
354.50 1.41610
355.00 1.41596
355.50 1.41604
356.00 1.41624
356.50 1.41720
357.00 1.41831
357.50 1.41885
358.00 1.41950
358.50 1.42040
359.00 1.42094
359.50 1.42161
360.00 1.42238
