phi[deg] B[T]
0.00 1.80665
0.50 1.80597
1.00 1.80542
1.50 1.80502
2.00 1.80446
2.50 1.80413
3.00 1.80395
3.50 1.80360
4.00 1.80322
4.50 1.80353
5.00 1.80401
5.50 1.80497
6.00 1.80634
6.50 1.80785
7.00 1.80901
7.50 1.81028
8.00 1.81240
8.50 1.81538
9.00 1.81850
9.50 1.82021
10.00 1.82105
10.50 1.82201
11.00 1.82361
11.50 1.82533
12.00 1.82668
12.50 1.82489
13.00 1.82321
13.50 1.82149
14.00 1.81937
14.50 1.81696
15.00 1.81363
15.50 1.81049
16.00 1.80765
16.50 1.80492
17.00 1.80220
17.50 1.79950
18.00 1.79691
18.50 1.79444
19.00 1.79166
19.50 1.78672
20.00 1.78204
20.50 1.77912
21.00 1.77626
21.50 1.77347
22.00 1.76632
22.50 1.75619
23.00 1.74612
23.50 1.73805
24.00 1.73120
24.50 1.71349
25.00 1.69621
25.50 1.68055
26.00 1.66494
26.50 1.64938
27.00 1.63027
27.50 1.61080
28.00 1.59197
28.50 1.57332
29.00 1.55474
29.50 1.53644
30.00 1.51843
30.50 1.50056
31.00 1.48265
31.50 1.46463
32.00 1.44647
32.50 1.42588
33.00 1.40760
33.50 1.38996
34.00 1.37236
34.50 1.35057
35.00 1.32847
35.50 1.30640
36.00 1.28655
36.50 1.26192
37.00 1.23753
37.50 1.21368
38.00 1.18986
38.50 1.16537
39.00 1.14017
39.50 1.11576
40.00 1.09174
40.50 1.06811
41.00 1.04464
41.50 1.02151
42.00 0.99846
42.50 0.97641
43.00 0.95445
43.50 0.93327
44.00 0.91225
44.50 0.89205
45.00 0.87211
45.50 0.85341
46.00 0.83463
46.50 0.81719
47.00 0.80064
47.50 0.78420
48.00 0.77051
48.50 0.75643
49.00 0.74068
49.50 0.72495
50.00 0.71380
50.50 0.70334
51.00 0.69364
51.50 0.67804
52.00 0.66139
52.50 0.64467
53.00 0.63166
53.50 0.61955
54.00 0.60408
54.50 0.58342
55.00 0.56257
55.50 0.54155
56.00 0.52039
56.50 0.49921
57.00 0.47786
57.50 0.45088
58.00 0.42284
58.50 0.39459
59.00 0.36174
59.50 0.32681
60.00 0.29259
60.50 0.26721
61.00 0.24171
61.50 0.21610
62.00 0.18713
62.50 0.15643
63.00 0.13631
63.50 0.11776
64.00 0.10288
64.50 0.08800
65.00 0.07508
65.50 0.06612
66.00 0.05714
66.50 0.04813
67.00 0.04024
67.50 0.03524
68.00 0.03116
68.50 0.02704
69.00 0.02283
69.50 0.01868
70.00 0.01653
70.50 0.01469
71.00 0.01286
71.50 0.01102
72.00 0.00919
72.50 0.00736
73.00 0.00648
73.50 0.00582
74.00 0.00515
74.50 0.00449
75.00 0.00383
75.50 0.00316
76.00 0.00260
76.50 0.00234
77.00 0.00207
77.50 0.00181
78.00 0.00154
78.50 0.00128
79.00 0.00114
79.50 0.00101
80.00 0.00089
80.50 0.00078
81.00 0.00070
81.50 0.00063
82.00 0.00056
82.50 0.00049
83.00 0.00044
83.50 0.00040
84.00 0.00036
84.50 0.00032
85.00 0.00028
85.50 0.00025
86.00 0.00023
86.50 0.00020
87.00 0.00017
87.50 0.00015
88.00 0.00013
88.50 0.00011
89.00 0.00010
89.50 0.00009
90.00 0.00008
90.00 0.00008
90.50 0.00009
91.00 0.00010
91.50 0.00011
92.00 0.00013
92.50 0.00015
93.00 0.00017
93.50 0.00020
94.00 0.00023
94.50 0.00025
95.00 0.00028
95.50 0.00032
96.00 0.00036
96.50 0.00040
97.00 0.00044
97.50 0.00049
98.00 0.00056
98.50 0.00063
99.00 0.00070
99.50 0.00078
100.00 0.00089
100.50 0.00101
101.00 0.00114
101.50 0.00128
102.00 0.00154
102.50 0.00181
103.00 0.00207
103.50 0.00234
104.00 0.00260
104.50 0.00316
105.00 0.00383
105.50 0.00449
106.00 0.00515
106.50 0.00582
107.00 0.00648
107.50 0.00736
108.00 0.00919
108.50 0.01102
109.00 0.01286
109.50 0.01469
110.00 0.01653
110.50 0.01868
111.00 0.02283
111.50 0.02704
112.00 0.03116
112.50 0.03524
113.00 0.04024
113.50 0.04813
114.00 0.05714
114.50 0.06612
115.00 0.07508
115.50 0.08800
116.00 0.10288
116.50 0.11776
117.00 0.13631
117.50 0.15643
118.00 0.18713
118.50 0.21610
119.00 0.24171
119.50 0.26721
120.00 0.29259
120.50 0.32681
121.00 0.36174
121.50 0.39459
122.00 0.42284
122.50 0.45088
123.00 0.47786
123.50 0.49921
124.00 0.52039
124.50 0.54155
125.00 0.56257
125.50 0.58342
126.00 0.60408
126.50 0.61955
127.00 0.63166
127.50 0.64467
128.00 0.66139
128.50 0.67804
129.00 0.69364
129.50 0.70334
130.00 0.71380
130.50 0.72495
131.00 0.74068
131.50 0.75643
132.00 0.77051
132.50 0.78420
133.00 0.80064
133.50 0.81719
134.00 0.83463
134.50 0.85341
135.00 0.87211
135.50 0.89205
136.00 0.91225
136.50 0.93327
137.00 0.95445
137.50 0.97641
138.00 0.99846
138.50 1.02151
139.00 1.04464
139.50 1.06811
140.00 1.09174
140.50 1.11576
141.00 1.14017
141.50 1.16537
142.00 1.18986
142.50 1.21368
143.00 1.23753
143.50 1.26192
144.00 1.28655
144.50 1.30640
145.00 1.32847
145.50 1.35057
146.00 1.37236
146.50 1.38996
147.00 1.40760
147.50 1.42588
148.00 1.44647
148.50 1.46463
149.00 1.48265
149.50 1.50056
150.00 1.51843
150.50 1.53644
151.00 1.55474
151.50 1.57332
152.00 1.59197
152.50 1.61080
153.00 1.63027
153.50 1.64938
154.00 1.66494
154.50 1.68055
155.00 1.69621
155.50 1.71349
156.00 1.73120
156.50 1.73805
157.00 1.74612
157.50 1.75619
158.00 1.76632
158.50 1.77347
159.00 1.77626
159.50 1.77912
160.00 1.78204
160.50 1.78672
161.00 1.79166
161.50 1.79444
162.00 1.79691
162.50 1.79950
163.00 1.80220
163.50 1.80492
164.00 1.80765
164.50 1.81049
165.00 1.81363
165.50 1.81696
166.00 1.81937
166.50 1.82149
167.00 1.82321
167.50 1.82489
168.00 1.82668
168.50 1.82533
169.00 1.82361
169.50 1.82201
170.00 1.82105
170.50 1.82021
171.00 1.81850
171.50 1.81538
172.00 1.81240
172.50 1.81028
173.00 1.80901
173.50 1.80785
174.00 1.80634
174.50 1.80497
175.00 1.80401
175.50 1.80353
176.00 1.80322
176.50 1.80360
177.00 1.80395
177.50 1.80413
178.00 1.80446
178.50 1.80502
179.00 1.80542
179.50 1.80597
180.00 1.80665
180.00 1.80665
180.50 1.80597
181.00 1.80542
181.50 1.80502
182.00 1.80446
182.50 1.80413
183.00 1.80395
183.50 1.80360
184.00 1.80322
184.50 1.80353
185.00 1.80401
185.50 1.80497
186.00 1.80634
186.50 1.80785
187.00 1.80901
187.50 1.81028
188.00 1.81240
188.50 1.81538
189.00 1.81850
189.50 1.82021
190.00 1.82105
190.50 1.82201
191.00 1.82361
191.50 1.82533
192.00 1.82668
192.50 1.82489
193.00 1.82321
193.50 1.82149
194.00 1.81937
194.50 1.81696
195.00 1.81363
195.50 1.81049
196.00 1.80765
196.50 1.80492
197.00 1.80220
197.50 1.79950
198.00 1.79691
198.50 1.79444
199.00 1.79166
199.50 1.78672
200.00 1.78204
200.50 1.77912
201.00 1.77626
201.50 1.77347
202.00 1.76632
202.50 1.75619
203.00 1.74612
203.50 1.73805
204.00 1.73120
204.50 1.71349
205.00 1.69621
205.50 1.68055
206.00 1.66494
206.50 1.64938
207.00 1.63027
207.50 1.61080
208.00 1.59197
208.50 1.57332
209.00 1.55474
209.50 1.53644
210.00 1.51843
210.50 1.50056
211.00 1.48265
211.50 1.46463
212.00 1.44647
212.50 1.42588
213.00 1.40760
213.50 1.38996
214.00 1.37236
214.50 1.35057
215.00 1.32847
215.50 1.30640
216.00 1.28655
216.50 1.26192
217.00 1.23753
217.50 1.21368
218.00 1.18986
218.50 1.16537
219.00 1.14017
219.50 1.11576
220.00 1.09174
220.50 1.06811
221.00 1.04464
221.50 1.02151
222.00 0.99846
222.50 0.97641
223.00 0.95445
223.50 0.93327
224.00 0.91225
224.50 0.89205
225.00 0.87211
225.50 0.85341
226.00 0.83463
226.50 0.81719
227.00 0.80064
227.50 0.78420
228.00 0.77051
228.50 0.75643
229.00 0.74068
229.50 0.72495
230.00 0.71380
230.50 0.70334
231.00 0.69364
231.50 0.67804
232.00 0.66139
232.50 0.64467
233.00 0.63166
233.50 0.61955
234.00 0.60408
234.50 0.58342
235.00 0.56257
235.50 0.54155
236.00 0.52039
236.50 0.49921
237.00 0.47786
237.50 0.45088
238.00 0.42284
238.50 0.39459
239.00 0.36174
239.50 0.32681
240.00 0.29259
240.50 0.26721
241.00 0.24171
241.50 0.21610
242.00 0.18713
242.50 0.15643
243.00 0.13631
243.50 0.11776
244.00 0.10288
244.50 0.08800
245.00 0.07508
245.50 0.06612
246.00 0.05714
246.50 0.04813
247.00 0.04024
247.50 0.03524
248.00 0.03116
248.50 0.02704
249.00 0.02283
249.50 0.01868
250.00 0.01653
250.50 0.01469
251.00 0.01286
251.50 0.01102
252.00 0.00919
252.50 0.00736
253.00 0.00648
253.50 0.00582
254.00 0.00515
254.50 0.00449
255.00 0.00383
255.50 0.00316
256.00 0.00260
256.50 0.00234
257.00 0.00207
257.50 0.00181
258.00 0.00154
258.50 0.00128
259.00 0.00114
259.50 0.00101
260.00 0.00089
260.50 0.00078
261.00 0.00070
261.50 0.00063
262.00 0.00056
262.50 0.00049
263.00 0.00044
263.50 0.00040
264.00 0.00036
264.50 0.00032
265.00 0.00028
265.50 0.00025
266.00 0.00023
266.50 0.00020
267.00 0.00017
267.50 0.00015
268.00 0.00013
268.50 0.00011
269.00 0.00010
269.50 0.00009
270.00 0.00008
270.00 0.00008
270.50 0.00009
271.00 0.00010
271.50 0.00011
272.00 0.00013
272.50 0.00015
273.00 0.00017
273.50 0.00020
274.00 0.00023
274.50 0.00025
275.00 0.00028
275.50 0.00032
276.00 0.00036
276.50 0.00040
277.00 0.00044
277.50 0.00049
278.00 0.00056
278.50 0.00063
279.00 0.00070
279.50 0.00078
280.00 0.00089
280.50 0.00101
281.00 0.00114
281.50 0.00128
282.00 0.00154
282.50 0.00181
283.00 0.00207
283.50 0.00234
284.00 0.00260
284.50 0.00316
285.00 0.00383
285.50 0.00449
286.00 0.00515
286.50 0.00582
287.00 0.00648
287.50 0.00736
288.00 0.00919
288.50 0.01102
289.00 0.01286
289.50 0.01469
290.00 0.01653
290.50 0.01868
291.00 0.02283
291.50 0.02704
292.00 0.03116
292.50 0.03524
293.00 0.04024
293.50 0.04813
294.00 0.05714
294.50 0.06612
295.00 0.07508
295.50 0.08800
296.00 0.10288
296.50 0.11776
297.00 0.13631
297.50 0.15643
298.00 0.18713
298.50 0.21610
299.00 0.24171
299.50 0.26721
300.00 0.29259
300.50 0.32681
301.00 0.36174
301.50 0.39459
302.00 0.42284
302.50 0.45088
303.00 0.47786
303.50 0.49921
304.00 0.52039
304.50 0.54155
305.00 0.56257
305.50 0.58342
306.00 0.60408
306.50 0.61955
307.00 0.63166
307.50 0.64467
308.00 0.66139
308.50 0.67804
309.00 0.69364
309.50 0.70334
310.00 0.71380
310.50 0.72495
311.00 0.74068
311.50 0.75643
312.00 0.77051
312.50 0.78420
313.00 0.80064
313.50 0.81719
314.00 0.83463
314.50 0.85341
315.00 0.87211
315.50 0.89205
316.00 0.91225
316.50 0.93327
317.00 0.95445
317.50 0.97641
318.00 0.99846
318.50 1.02151
319.00 1.04464
319.50 1.06811
320.00 1.09174
320.50 1.11576
321.00 1.14017
321.50 1.16537
322.00 1.18986
322.50 1.21368
323.00 1.23753
323.50 1.26192
324.00 1.28655
324.50 1.30640
325.00 1.32847
325.50 1.35057
326.00 1.37236
326.50 1.38996
327.00 1.40760
327.50 1.42588
328.00 1.44647
328.50 1.46463
329.00 1.48265
329.50 1.50056
330.00 1.51843
330.50 1.53644
331.00 1.55474
331.50 1.57332
332.00 1.59197
332.50 1.61080
333.00 1.63027
333.50 1.64938
334.00 1.66494
334.50 1.68055
335.00 1.69621
335.50 1.71349
336.00 1.73120
336.50 1.73805
337.00 1.74612
337.50 1.75619
338.00 1.76632
338.50 1.77347
339.00 1.77626
339.50 1.77912
340.00 1.78204
340.50 1.78672
341.00 1.79166
341.50 1.79444
342.00 1.79691
342.50 1.79950
343.00 1.80220
343.50 1.80492
344.00 1.80765
344.50 1.81049
345.00 1.81363
345.50 1.81696
346.00 1.81937
346.50 1.82149
347.00 1.82321
347.50 1.82489
348.00 1.82668
348.50 1.82533
349.00 1.82361
349.50 1.82201
350.00 1.82105
350.50 1.82021
351.00 1.81850
351.50 1.81538
352.00 1.81240
352.50 1.81028
353.00 1.80901
353.50 1.80785
354.00 1.80634
354.50 1.80497
355.00 1.80401
355.50 1.80353
356.00 1.80322
356.50 1.80360
357.00 1.80395
357.50 1.80413
358.00 1.80446
358.50 1.80502
359.00 1.80542
359.50 1.80597
360.00 1.80665
