phi[deg] B[T]
0.00 1.16106
0.50 1.15994
1.00 1.15890
1.50 1.15788
2.00 1.15620
2.50 1.15461
3.00 1.15312
3.50 1.15221
4.00 1.15144
4.50 1.15037
5.00 1.14939
5.50 1.14907
6.00 1.14934
6.50 1.14992
7.00 1.15125
7.50 1.15267
8.00 1.15401
8.50 1.15542
9.00 1.15702
9.50 1.16012
10.00 1.16290
10.50 1.16539
11.00 1.16636
11.50 1.16734
12.00 1.16793
12.50 1.16640
13.00 1.16494
13.50 1.16368
14.00 1.16252
14.50 1.16061
15.00 1.15800
15.50 1.15561
16.00 1.15401
16.50 1.15249
17.00 1.15152
17.50 1.15084
18.00 1.14992
18.50 1.14858
19.00 1.14732
19.50 1.14820
20.00 1.14950
20.50 1.14816
21.00 1.14535
21.50 1.14258
22.00 1.14014
22.50 1.14187
23.00 1.13483
23.50 1.12774
24.00 1.12067
24.50 1.11360
25.00 1.10090
25.50 1.08639
26.00 1.07351
26.50 1.06088
27.00 1.04752
27.50 1.03219
28.00 1.01714
28.50 1.00365
29.00 0.99022
29.50 0.97685
30.00 0.96339
30.50 0.95109
31.00 0.93888
31.50 0.92635
32.00 0.91389
32.50 0.90195
33.00 0.89119
33.50 0.88016
34.00 0.86790
34.50 0.85570
35.00 0.84429
35.50 0.83368
36.00 0.82206
36.50 0.80941
37.00 0.79680
37.50 0.78470
38.00 0.77346
38.50 0.76151
39.00 0.74817
39.50 0.73470
40.00 0.72124
40.50 0.70771
41.00 0.69403
41.50 0.67937
42.00 0.66417
42.50 0.64904
43.00 0.63346
43.50 0.61726
44.00 0.60114
44.50 0.58430
45.00 0.56731
45.50 0.54972
46.00 0.53304
46.50 0.51640
47.00 0.49994
47.50 0.48529
48.00 0.47172
48.50 0.46016
49.00 0.44957
49.50 0.44026
50.00 0.43416
50.50 0.43113
51.00 0.42345
51.50 0.41579
52.00 0.40966
52.50 0.40676
53.00 0.40157
53.50 0.39235
54.00 0.38305
54.50 0.37434
55.00 0.36686
55.50 0.35634
56.00 0.34127
56.50 0.32607
57.00 0.31094
57.50 0.29574
58.00 0.27817
58.50 0.25815
59.00 0.23744
59.50 0.21164
60.00 0.18572
60.50 0.16571
61.00 0.14732
61.50 0.12848
62.00 0.10642
62.50 0.08833
63.00 0.07398
63.50 0.06366
64.00 0.05349
64.50 0.04394
65.00 0.03738
65.50 0.03080
66.00 0.02543
66.50 0.02094
67.00 0.01808
67.50 0.01521
68.00 0.01233
68.50 0.01038
69.00 0.00892
69.50 0.00745
70.00 0.00597
70.50 0.00521
71.00 0.00444
71.50 0.00365
72.00 0.00303
72.50 0.00263
73.00 0.00224
73.50 0.00184
74.00 0.00164
74.50 0.00144
75.00 0.00125
75.50 0.00107
76.00 0.00097
76.50 0.00089
77.00 0.00082
77.50 0.00075
78.00 0.00070
78.50 0.00064
79.00 0.00060
79.50 0.00058
80.00 0.00055
80.50 0.00052
81.00 0.00048
81.50 0.00046
82.00 0.00043
82.50 0.00041
83.00 0.00038
83.50 0.00035
84.00 0.00033
84.50 0.00030
85.00 0.00028
85.50 0.00026
86.00 0.00023
86.50 0.00021
87.00 0.00018
87.50 0.00016
88.00 0.00014
88.50 0.00012
89.00 0.00011
89.50 0.00010
90.00 0.00009
90.00 0.00009
90.50 0.00010
91.00 0.00011
91.50 0.00012
92.00 0.00014
92.50 0.00016
93.00 0.00018
93.50 0.00021
94.00 0.00023
94.50 0.00026
95.00 0.00028
95.50 0.00030
96.00 0.00033
96.50 0.00035
97.00 0.00038
97.50 0.00041
98.00 0.00043
98.50 0.00046
99.00 0.00048
99.50 0.00052
100.00 0.00055
100.50 0.00058
101.00 0.00060
101.50 0.00064
102.00 0.00070
102.50 0.00075
103.00 0.00082
103.50 0.00089
104.00 0.00097
104.50 0.00107
105.00 0.00125
105.50 0.00144
106.00 0.00164
106.50 0.00184
107.00 0.00224
107.50 0.00263
108.00 0.00303
108.50 0.00365
109.00 0.00444
109.50 0.00521
110.00 0.00597
110.50 0.00745
111.00 0.00892
111.50 0.01038
112.00 0.01233
112.50 0.01521
113.00 0.01808
113.50 0.02094
114.00 0.02543
114.50 0.03080
115.00 0.03738
115.50 0.04394
116.00 0.05349
116.50 0.06366
117.00 0.07398
117.50 0.08833
118.00 0.10642
118.50 0.12848
119.00 0.14732
119.50 0.16571
120.00 0.18572
120.50 0.21164
121.00 0.23744
121.50 0.25815
122.00 0.27817
122.50 0.29574
123.00 0.31094
123.50 0.32607
124.00 0.34127
124.50 0.35634
125.00 0.36686
125.50 0.37434
126.00 0.38305
126.50 0.39235
127.00 0.40157
127.50 0.40676
128.00 0.40966
128.50 0.41579
129.00 0.42345
129.50 0.43113
130.00 0.43416
130.50 0.44026
131.00 0.44957
131.50 0.46016
132.00 0.47172
132.50 0.48529
133.00 0.49994
133.50 0.51640
134.00 0.53304
134.50 0.54972
135.00 0.56731
135.50 0.58430
136.00 0.60114
136.50 0.61726
137.00 0.63346
137.50 0.64904
138.00 0.66417
138.50 0.67937
139.00 0.69403
139.50 0.70771
140.00 0.72124
140.50 0.73470
141.00 0.74817
141.50 0.76151
142.00 0.77346
142.50 0.78470
143.00 0.79680
143.50 0.80941
144.00 0.82206
144.50 0.83368
145.00 0.84429
145.50 0.85570
146.00 0.86790
146.50 0.88016
147.00 0.89119
147.50 0.90195
148.00 0.91389
148.50 0.92635
149.00 0.93888
149.50 0.95109
150.00 0.96339
150.50 0.97685
151.00 0.99022
151.50 1.00365
152.00 1.01714
152.50 1.03219
153.00 1.04752
153.50 1.06088
154.00 1.07351
154.50 1.08639
155.00 1.10090
155.50 1.11360
156.00 1.12067
156.50 1.12774
157.00 1.13483
157.50 1.14187
158.00 1.14014
158.50 1.14258
159.00 1.14535
159.50 1.14816
160.00 1.14950
160.50 1.14820
161.00 1.14732
161.50 1.14858
162.00 1.14992
162.50 1.15084
163.00 1.15152
163.50 1.15249
164.00 1.15401
164.50 1.15561
165.00 1.15800
165.50 1.16061
166.00 1.16252
166.50 1.16368
167.00 1.16494
167.50 1.16640
168.00 1.16793
168.50 1.16734
169.00 1.16636
169.50 1.16539
170.00 1.16290
170.50 1.16012
171.00 1.15702
171.50 1.15542
172.00 1.15401
172.50 1.15267
173.00 1.15125
173.50 1.14992
174.00 1.14934
174.50 1.14907
175.00 1.14939
175.50 1.15037
176.00 1.15144
176.50 1.15221
177.00 1.15312
177.50 1.15461
178.00 1.15620
178.50 1.15788
179.00 1.15890
179.50 1.15994
180.00 1.16106
180.00 1.16106
180.50 1.15994
181.00 1.15890
181.50 1.15788
182.00 1.15620
182.50 1.15461
183.00 1.15312
183.50 1.15221
184.00 1.15144
184.50 1.15037
185.00 1.14939
185.50 1.14907
186.00 1.14934
186.50 1.14992
187.00 1.15125
187.50 1.15267
188.00 1.15401
188.50 1.15542
189.00 1.15702
189.50 1.16012
190.00 1.16290
190.50 1.16539
191.00 1.16636
191.50 1.16734
192.00 1.16793
192.50 1.16640
193.00 1.16494
193.50 1.16368
194.00 1.16252
194.50 1.16061
195.00 1.15800
195.50 1.15561
196.00 1.15401
196.50 1.15249
197.00 1.15152
197.50 1.15084
198.00 1.14992
198.50 1.14858
199.00 1.14732
199.50 1.14820
200.00 1.14950
200.50 1.14816
201.00 1.14535
201.50 1.14258
202.00 1.14014
202.50 1.14187
203.00 1.13483
203.50 1.12774
204.00 1.12067
204.50 1.11360
205.00 1.10090
205.50 1.08639
206.00 1.07351
206.50 1.06088
207.00 1.04752
207.50 1.03219
208.00 1.01714
208.50 1.00365
209.00 0.99022
209.50 0.97685
210.00 0.96339
210.50 0.95109
211.00 0.93888
211.50 0.92635
212.00 0.91389
212.50 0.90195
213.00 0.89119
213.50 0.88016
214.00 0.86790
214.50 0.85570
215.00 0.84429
215.50 0.83368
216.00 0.82206
216.50 0.80941
217.00 0.79680
217.50 0.78470
218.00 0.77346
218.50 0.76151
219.00 0.74817
219.50 0.73470
220.00 0.72124
220.50 0.70771
221.00 0.69403
221.50 0.67937
222.00 0.66417
222.50 0.64904
223.00 0.63346
223.50 0.61726
224.00 0.60114
224.50 0.58430
225.00 0.56731
225.50 0.54972
226.00 0.53304
226.50 0.51640
227.00 0.49994
227.50 0.48529
228.00 0.47172
228.50 0.46016
229.00 0.44957
229.50 0.44026
230.00 0.43416
230.50 0.43113
231.00 0.42345
231.50 0.41579
232.00 0.40966
232.50 0.40676
233.00 0.40157
233.50 0.39235
234.00 0.38305
234.50 0.37434
235.00 0.36686
235.50 0.35634
236.00 0.34127
236.50 0.32607
237.00 0.31094
237.50 0.29574
238.00 0.27817
238.50 0.25815
239.00 0.23744
239.50 0.21164
240.00 0.18572
240.50 0.16571
241.00 0.14732
241.50 0.12848
242.00 0.10642
242.50 0.08833
243.00 0.07398
243.50 0.06366
244.00 0.05349
244.50 0.04394
245.00 0.03738
245.50 0.03080
246.00 0.02543
246.50 0.02094
247.00 0.01808
247.50 0.01521
248.00 0.01233
248.50 0.01038
249.00 0.00892
249.50 0.00745
250.00 0.00597
250.50 0.00521
251.00 0.00444
251.50 0.00365
252.00 0.00303
252.50 0.00263
253.00 0.00224
253.50 0.00184
254.00 0.00164
254.50 0.00144
255.00 0.00125
255.50 0.00107
256.00 0.00097
256.50 0.00089
257.00 0.00082
257.50 0.00075
258.00 0.00070
258.50 0.00064
259.00 0.00060
259.50 0.00058
260.00 0.00055
260.50 0.00052
261.00 0.00048
261.50 0.00046
262.00 0.00043
262.50 0.00041
263.00 0.00038
263.50 0.00035
264.00 0.00033
264.50 0.00030
265.00 0.00028
265.50 0.00026
266.00 0.00023
266.50 0.00021
267.00 0.00018
267.50 0.00016
268.00 0.00014
268.50 0.00012
269.00 0.00011
269.50 0.00010
270.00 0.00009
270.00 0.00009
270.50 0.00010
271.00 0.00011
271.50 0.00012
272.00 0.00014
272.50 0.00016
273.00 0.00018
273.50 0.00021
274.00 0.00023
274.50 0.00026
275.00 0.00028
275.50 0.00030
276.00 0.00033
276.50 0.00035
277.00 0.00038
277.50 0.00041
278.00 0.00043
278.50 0.00046
279.00 0.00048
279.50 0.00052
280.00 0.00055
280.50 0.00058
281.00 0.00060
281.50 0.00064
282.00 0.00070
282.50 0.00075
283.00 0.00082
283.50 0.00089
284.00 0.00097
284.50 0.00107
285.00 0.00125
285.50 0.00144
286.00 0.00164
286.50 0.00184
287.00 0.00224
287.50 0.00263
288.00 0.00303
288.50 0.00365
289.00 0.00444
289.50 0.00521
290.00 0.00597
290.50 0.00745
291.00 0.00892
291.50 0.01038
292.00 0.01233
292.50 0.01521
293.00 0.01808
293.50 0.02094
294.00 0.02543
294.50 0.03080
295.00 0.03738
295.50 0.04394
296.00 0.05349
296.50 0.06366
297.00 0.07398
297.50 0.08833
298.00 0.10642
298.50 0.12848
299.00 0.14732
299.50 0.16571
300.00 0.18572
300.50 0.21164
301.00 0.23744
301.50 0.25815
302.00 0.27817
302.50 0.29574
303.00 0.31094
303.50 0.32607
304.00 0.34127
304.50 0.35634
305.00 0.36686
305.50 0.37434
306.00 0.38305
306.50 0.39235
307.00 0.40157
307.50 0.40676
308.00 0.40966
308.50 0.41579
309.00 0.42345
309.50 0.43113
310.00 0.43416
310.50 0.44026
311.00 0.44957
311.50 0.46016
312.00 0.47172
312.50 0.48529
313.00 0.49994
313.50 0.51640
314.00 0.53304
314.50 0.54972
315.00 0.56731
315.50 0.58430
316.00 0.60114
316.50 0.61726
317.00 0.63346
317.50 0.64904
318.00 0.66417
318.50 0.67937
319.00 0.69403
319.50 0.70771
320.00 0.72124
320.50 0.73470
321.00 0.74817
321.50 0.76151
322.00 0.77346
322.50 0.78470
323.00 0.79680
323.50 0.80941
324.00 0.82206
324.50 0.83368
325.00 0.84429
325.50 0.85570
326.00 0.86790
326.50 0.88016
327.00 0.89119
327.50 0.90195
328.00 0.91389
328.50 0.92635
329.00 0.93888
329.50 0.95109
330.00 0.96339
330.50 0.97685
331.00 0.99022
331.50 1.00365
332.00 1.01714
332.50 1.03219
333.00 1.04752
333.50 1.06088
334.00 1.07351
334.50 1.08639
335.00 1.10090
335.50 1.11360
336.00 1.12067
336.50 1.12774
337.00 1.13483
337.50 1.14187
338.00 1.14014
338.50 1.14258
339.00 1.14535
339.50 1.14816
340.00 1.14950
340.50 1.14820
341.00 1.14732
341.50 1.14858
342.00 1.14992
342.50 1.15084
343.00 1.15152
343.50 1.15249
344.00 1.15401
344.50 1.15561
345.00 1.15800
345.50 1.16061
346.00 1.16252
346.50 1.16368
347.00 1.16494
347.50 1.16640
348.00 1.16793
348.50 1.16734
349.00 1.16636
349.50 1.16539
350.00 1.16290
350.50 1.16012
351.00 1.15702
351.50 1.15542
352.00 1.15401
352.50 1.15267
353.00 1.15125
353.50 1.14992
354.00 1.14934
354.50 1.14907
355.00 1.14939
355.50 1.15037
356.00 1.15144
356.50 1.15221
357.00 1.15312
357.50 1.15461
358.00 1.15620
358.50 1.15788
359.00 1.15890
359.50 1.15994
360.00 1.16106
