phi[deg] B[T]
0.00 2.00147
0.50 2.00103
1.00 2.00109
1.50 2.00128
2.00 2.00103
2.50 2.00050
3.00 2.00010
3.50 1.99995
4.00 1.99959
4.50 1.99927
5.00 1.99907
5.50 1.99901
6.00 1.99857
6.50 1.99765
7.00 1.99730
7.50 1.99754
8.00 1.99772
8.50 1.99649
9.00 1.99538
9.50 1.99438
10.00 1.99409
10.50 1.99252
11.00 1.99078
11.50 1.98914
12.00 1.98788
12.50 1.98655
13.00 1.98366
13.50 1.98087
14.00 1.97816
14.50 1.97538
15.00 1.97252
15.50 1.96821
16.00 1.96398
16.50 1.96033
17.00 1.95715
17.50 1.95148
18.00 1.94542
18.50 1.93943
19.00 1.93412
19.50 1.92979
20.00 1.92186
20.50 1.91343
21.00 1.90504
21.50 1.89717
22.00 1.88999
22.50 1.87840
23.00 1.86682
23.50 1.85526
24.00 1.84345
24.50 1.83082
25.00 1.81624
25.50 1.80166
26.00 1.78708
26.50 1.77085
27.00 1.75380
27.50 1.73645
28.00 1.71862
28.50 1.70060
29.00 1.68235
29.50 1.66411
30.00 1.64540
30.50 1.62522
31.00 1.60413
31.50 1.58243
32.00 1.56158
32.50 1.54212
33.00 1.52173
33.50 1.49876
34.00 1.47576
34.50 1.45274
35.00 1.43055
35.50 1.40630
36.00 1.38217
36.50 1.35803
37.00 1.33372
37.50 1.30824
38.00 1.28273
38.50 1.25760
39.00 1.23278
39.50 1.20760
40.00 1.18238
40.50 1.15710
41.00 1.13172
41.50 1.10631
42.00 1.08130
42.50 1.05703
43.00 1.03240
43.50 1.00776
44.00 0.98377
44.50 0.95952
45.00 0.93463
45.50 0.90974
46.00 0.88540
46.50 0.86195
47.00 0.83832
47.50 0.81422
48.00 0.79019
48.50 0.76663
49.00 0.74300
49.50 0.71907
50.00 0.69521
50.50 0.67254
51.00 0.64980
51.50 0.62768
52.00 0.60592
52.50 0.58347
53.00 0.56119
53.50 0.53939
54.00 0.51751
54.50 0.49680
55.00 0.47677
55.50 0.45702
56.00 0.43716
56.50 0.41721
57.00 0.39719
57.50 0.37709
58.00 0.35809
58.50 0.33935
59.00 0.32055
59.50 0.30196
60.00 0.28329
60.50 0.26647
61.00 0.25031
61.50 0.23544
62.00 0.22065
62.50 0.20580
63.00 0.19089
63.50 0.17650
64.00 0.16539
64.50 0.15425
65.00 0.14309
65.50 0.13190
66.00 0.12322
66.50 0.11530
67.00 0.10736
67.50 0.09949
68.00 0.09284
68.50 0.08660
69.00 0.08035
69.50 0.07483
70.00 0.07045
70.50 0.06605
71.00 0.06170
71.50 0.05767
72.00 0.05428
72.50 0.05088
73.00 0.04755
73.50 0.04515
74.00 0.04274
74.50 0.04033
75.00 0.03799
75.50 0.03602
76.00 0.03411
76.50 0.03220
77.00 0.03070
77.50 0.02928
78.00 0.02787
78.50 0.02645
79.00 0.02524
79.50 0.02410
80.00 0.02297
80.50 0.02195
81.00 0.02104
81.50 0.02014
82.00 0.01924
82.50 0.01853
83.00 0.01783
83.50 0.01714
84.00 0.01645
84.50 0.01583
85.00 0.01536
85.50 0.01489
86.00 0.01442
86.50 0.01396
87.00 0.01363
87.50 0.01336
88.00 0.01309
88.50 0.01289
89.00 0.01280
89.50 0.01271
90.00 0.01262
90.00 0.01262
90.50 0.01271
91.00 0.01280
91.50 0.01289
92.00 0.01309
92.50 0.01336
93.00 0.01363
93.50 0.01396
94.00 0.01442
94.50 0.01489
95.00 0.01536
95.50 0.01583
96.00 0.01645
96.50 0.01714
97.00 0.01783
97.50 0.01853
98.00 0.01924
98.50 0.02014
99.00 0.02104
99.50 0.02195
100.00 0.02297
100.50 0.02410
101.00 0.02524
101.50 0.02645
102.00 0.02787
102.50 0.02928
103.00 0.03070
103.50 0.03220
104.00 0.03411
104.50 0.03602
105.00 0.03799
105.50 0.04033
106.00 0.04274
106.50 0.04515
107.00 0.04755
107.50 0.05088
108.00 0.05428
108.50 0.05767
109.00 0.06170
109.50 0.06605
110.00 0.07045
110.50 0.07483
111.00 0.08035
111.50 0.08660
112.00 0.09284
112.50 0.09949
113.00 0.10736
113.50 0.11530
114.00 0.12322
114.50 0.13190
115.00 0.14309
115.50 0.15425
116.00 0.16539
116.50 0.17650
117.00 0.19089
117.50 0.20580
118.00 0.22065
118.50 0.23544
119.00 0.25031
119.50 0.26647
120.00 0.28329
120.50 0.30196
121.00 0.32055
121.50 0.33935
122.00 0.35809
122.50 0.37709
123.00 0.39719
123.50 0.41721
124.00 0.43716
124.50 0.45702
125.00 0.47677
125.50 0.49680
126.00 0.51751
126.50 0.53939
127.00 0.56119
127.50 0.58347
128.00 0.60592
128.50 0.62768
129.00 0.64980
129.50 0.67254
130.00 0.69521
130.50 0.71907
131.00 0.74300
131.50 0.76663
132.00 0.79019
132.50 0.81422
133.00 0.83832
133.50 0.86195
134.00 0.88540
134.50 0.90974
135.00 0.93463
135.50 0.95952
136.00 0.98377
136.50 1.00776
137.00 1.03240
137.50 1.05703
138.00 1.08130
138.50 1.10631
139.00 1.13172
139.50 1.15710
140.00 1.18238
140.50 1.20760
141.00 1.23278
141.50 1.25760
142.00 1.28273
142.50 1.30824
143.00 1.33372
143.50 1.35803
144.00 1.38217
144.50 1.40630
145.00 1.43055
145.50 1.45274
146.00 1.47576
146.50 1.49876
147.00 1.52173
147.50 1.54212
148.00 1.56158
148.50 1.58243
149.00 1.60413
149.50 1.62522
150.00 1.64540
150.50 1.66411
151.00 1.68235
151.50 1.70060
152.00 1.71862
152.50 1.73645
153.00 1.75380
153.50 1.77085
154.00 1.78708
154.50 1.80166
155.00 1.81624
155.50 1.83082
156.00 1.84345
156.50 1.85526
157.00 1.86682
157.50 1.87840
158.00 1.88999
158.50 1.89717
159.00 1.90504
159.50 1.91343
160.00 1.92186
160.50 1.92979
161.00 1.93412
161.50 1.93943
162.00 1.94542
162.50 1.95148
163.00 1.95715
163.50 1.96033
164.00 1.96398
164.50 1.96821
165.00 1.97252
165.50 1.97538
166.00 1.97816
166.50 1.98087
167.00 1.98366
167.50 1.98655
168.00 1.98788
168.50 1.98914
169.00 1.99078
169.50 1.99252
170.00 1.99409
170.50 1.99438
171.00 1.99538
171.50 1.99649
172.00 1.99772
172.50 1.99754
173.00 1.99730
173.50 1.99765
174.00 1.99857
174.50 1.99901
175.00 1.99907
175.50 1.99927
176.00 1.99959
176.50 1.99995
177.00 2.00010
177.50 2.00050
178.00 2.00103
178.50 2.00128
179.00 2.00109
179.50 2.00103
180.00 2.00147
180.00 2.00147
180.50 2.00103
181.00 2.00109
181.50 2.00128
182.00 2.00103
182.50 2.00050
183.00 2.00010
183.50 1.99995
184.00 1.99959
184.50 1.99927
185.00 1.99907
185.50 1.99901
186.00 1.99857
186.50 1.99765
187.00 1.99730
187.50 1.99754
188.00 1.99772
188.50 1.99649
189.00 1.99538
189.50 1.99438
190.00 1.99409
190.50 1.99252
191.00 1.99078
191.50 1.98914
192.00 1.98788
192.50 1.98655
193.00 1.98366
193.50 1.98087
194.00 1.97816
194.50 1.97538
195.00 1.97252
195.50 1.96821
196.00 1.96398
196.50 1.96033
197.00 1.95715
197.50 1.95148
198.00 1.94542
198.50 1.93943
199.00 1.93412
199.50 1.92979
200.00 1.92186
200.50 1.91343
201.00 1.90504
201.50 1.89717
202.00 1.88999
202.50 1.87840
203.00 1.86682
203.50 1.85526
204.00 1.84345
204.50 1.83082
205.00 1.81624
205.50 1.80166
206.00 1.78708
206.50 1.77085
207.00 1.75380
207.50 1.73645
208.00 1.71862
208.50 1.70060
209.00 1.68235
209.50 1.66411
210.00 1.64540
210.50 1.62522
211.00 1.60413
211.50 1.58243
212.00 1.56158
212.50 1.54212
213.00 1.52173
213.50 1.49876
214.00 1.47576
214.50 1.45274
215.00 1.43055
215.50 1.40630
216.00 1.38217
216.50 1.35803
217.00 1.33372
217.50 1.30824
218.00 1.28273
218.50 1.25760
219.00 1.23278
219.50 1.20760
220.00 1.18238
220.50 1.15710
221.00 1.13172
221.50 1.10631
222.00 1.08130
222.50 1.05703
223.00 1.03240
223.50 1.00776
224.00 0.98377
224.50 0.95952
225.00 0.93463
225.50 0.90974
226.00 0.88540
226.50 0.86195
227.00 0.83832
227.50 0.81422
228.00 0.79019
228.50 0.76663
229.00 0.74300
229.50 0.71907
230.00 0.69521
230.50 0.67254
231.00 0.64980
231.50 0.62768
232.00 0.60592
232.50 0.58347
233.00 0.56119
233.50 0.53939
234.00 0.51751
234.50 0.49680
235.00 0.47677
235.50 0.45702
236.00 0.43716
236.50 0.41721
237.00 0.39719
237.50 0.37709
238.00 0.35809
238.50 0.33935
239.00 0.32055
239.50 0.30196
240.00 0.28329
240.50 0.26647
241.00 0.25031
241.50 0.23544
242.00 0.22065
242.50 0.20580
243.00 0.19089
243.50 0.17650
244.00 0.16539
244.50 0.15425
245.00 0.14309
245.50 0.13190
246.00 0.12322
246.50 0.11530
247.00 0.10736
247.50 0.09949
248.00 0.09284
248.50 0.08660
249.00 0.08035
249.50 0.07483
250.00 0.07045
250.50 0.06605
251.00 0.06170
251.50 0.05767
252.00 0.05428
252.50 0.05088
253.00 0.04755
253.50 0.04515
254.00 0.04274
254.50 0.04033
255.00 0.03799
255.50 0.03602
256.00 0.03411
256.50 0.03220
257.00 0.03070
257.50 0.02928
258.00 0.02787
258.50 0.02645
259.00 0.02524
259.50 0.02410
260.00 0.02297
260.50 0.02195
261.00 0.02104
261.50 0.02014
262.00 0.01924
262.50 0.01853
263.00 0.01783
263.50 0.01714
264.00 0.01645
264.50 0.01583
265.00 0.01536
265.50 0.01489
266.00 0.01442
266.50 0.01396
267.00 0.01363
267.50 0.01336
268.00 0.01309
268.50 0.01289
269.00 0.01280
269.50 0.01271
270.00 0.01262
270.00 0.01262
270.50 0.01271
271.00 0.01280
271.50 0.01289
272.00 0.01309
272.50 0.01336
273.00 0.01363
273.50 0.01396
274.00 0.01442
274.50 0.01489
275.00 0.01536
275.50 0.01583
276.00 0.01645
276.50 0.01714
277.00 0.01783
277.50 0.01853
278.00 0.01924
278.50 0.02014
279.00 0.02104
279.50 0.02195
280.00 0.02297
280.50 0.02410
281.00 0.02524
281.50 0.02645
282.00 0.02787
282.50 0.02928
283.00 0.03070
283.50 0.03220
284.00 0.03411
284.50 0.03602
285.00 0.03799
285.50 0.04033
286.00 0.04274
286.50 0.04515
287.00 0.04755
287.50 0.05088
288.00 0.05428
288.50 0.05767
289.00 0.06170
289.50 0.06605
290.00 0.07045
290.50 0.07483
291.00 0.08035
291.50 0.08660
292.00 0.09284
292.50 0.09949
293.00 0.10736
293.50 0.11530
294.00 0.12322
294.50 0.13190
295.00 0.14309
295.50 0.15425
296.00 0.16539
296.50 0.17650
297.00 0.19089
297.50 0.20580
298.00 0.22065
298.50 0.23544
299.00 0.25031
299.50 0.26647
300.00 0.28329
300.50 0.30196
301.00 0.32055
301.50 0.33935
302.00 0.35809
302.50 0.37709
303.00 0.39719
303.50 0.41721
304.00 0.43716
304.50 0.45702
305.00 0.47677
305.50 0.49680
306.00 0.51751
306.50 0.53939
307.00 0.56119
307.50 0.58347
308.00 0.60592
308.50 0.62768
309.00 0.64980
309.50 0.67254
310.00 0.69521
310.50 0.71907
311.00 0.74300
311.50 0.76663
312.00 0.79019
312.50 0.81422
313.00 0.83832
313.50 0.86195
314.00 0.88540
314.50 0.90974
315.00 0.93463
315.50 0.95952
316.00 0.98377
316.50 1.00776
317.00 1.03240
317.50 1.05703
318.00 1.08130
318.50 1.10631
319.00 1.13172
319.50 1.15710
320.00 1.18238
320.50 1.20760
321.00 1.23278
321.50 1.25760
322.00 1.28273
322.50 1.30824
323.00 1.33372
323.50 1.35803
324.00 1.38217
324.50 1.40630
325.00 1.43055
325.50 1.45274
326.00 1.47576
326.50 1.49876
327.00 1.52173
327.50 1.54212
328.00 1.56158
328.50 1.58243
329.00 1.60413
329.50 1.62522
330.00 1.64540
330.50 1.66411
331.00 1.68235
331.50 1.70060
332.00 1.71862
332.50 1.73645
333.00 1.75380
333.50 1.77085
334.00 1.78708
334.50 1.80166
335.00 1.81624
335.50 1.83082
336.00 1.84345
336.50 1.85526
337.00 1.86682
337.50 1.87840
338.00 1.88999
338.50 1.89717
339.00 1.90504
339.50 1.91343
340.00 1.92186
340.50 1.92979
341.00 1.93412
341.50 1.93943
342.00 1.94542
342.50 1.95148
343.00 1.95715
343.50 1.96033
344.00 1.96398
344.50 1.96821
345.00 1.97252
345.50 1.97538
346.00 1.97816
346.50 1.98087
347.00 1.98366
347.50 1.98655
348.00 1.98788
348.50 1.98914
349.00 1.99078
349.50 1.99252
350.00 1.99409
350.50 1.99438
351.00 1.99538
351.50 1.99649
352.00 1.99772
352.50 1.99754
353.00 1.99730
353.50 1.99765
354.00 1.99857
354.50 1.99901
355.00 1.99907
355.50 1.99927
356.00 1.99959
356.50 1.99995
357.00 2.00010
357.50 2.00050
358.00 2.00103
358.50 2.00128
359.00 2.00109
359.50 2.00103
360.00 2.00147
