phi[deg] B[T]
0.00 1.53139
0.50 1.53077
1.00 1.53027
1.50 1.52989
2.00 1.52953
2.50 1.52913
3.00 1.52885
3.50 1.52870
4.00 1.52869
4.50 1.52890
5.00 1.52924
5.50 1.52994
6.00 1.53088
6.50 1.53194
7.00 1.53282
7.50 1.53373
8.00 1.53477
8.50 1.53592
9.00 1.53848
9.50 1.54104
10.00 1.54293
10.50 1.54393
11.00 1.54443
11.50 1.54501
12.00 1.54568
12.50 1.54490
13.00 1.54373
13.50 1.54253
14.00 1.54081
14.50 1.53919
15.00 1.53766
15.50 1.53580
16.00 1.53387
16.50 1.53198
17.00 1.52903
17.50 1.52617
18.00 1.52340
18.50 1.52126
19.00 1.52037
19.50 1.51910
20.00 1.51769
20.50 1.51312
21.00 1.50837
21.50 1.50366
22.00 1.49874
22.50 1.49275
23.00 1.48681
23.50 1.47850
24.00 1.46771
24.50 1.45693
25.00 1.44496
25.50 1.43001
26.00 1.41511
26.50 1.39998
27.00 1.38453
27.50 1.36913
28.00 1.35377
28.50 1.33808
29.00 1.32196
29.50 1.30702
30.00 1.29172
30.50 1.27553
31.00 1.25939
31.50 1.24329
32.00 1.22725
32.50 1.21302
33.00 1.19886
33.50 1.18226
34.00 1.16402
34.50 1.14581
35.00 1.12763
35.50 1.11022
36.00 1.09337
36.50 1.07377
37.00 1.05270
37.50 1.03192
38.00 1.01202
38.50 0.99212
39.00 0.97165
39.50 0.95123
40.00 0.93085
40.50 0.91061
41.00 0.89101
41.50 0.87171
42.00 0.85246
42.50 0.83337
43.00 0.81515
43.50 0.79702
44.00 0.77943
44.50 0.76223
45.00 0.74509
45.50 0.72919
46.00 0.71331
46.50 0.69849
47.00 0.68481
47.50 0.67035
48.00 0.65792
48.50 0.64621
49.00 0.63392
49.50 0.62129
50.00 0.60940
50.50 0.59881
51.00 0.59165
51.50 0.58038
52.00 0.56674
52.50 0.55302
53.00 0.53922
53.50 0.52617
54.00 0.51660
54.50 0.50264
55.00 0.48390
55.50 0.46499
56.00 0.44592
56.50 0.42667
57.00 0.40852
57.50 0.39186
58.00 0.36296
58.50 0.33784
59.00 0.31499
59.50 0.29201
60.00 0.26787
60.50 0.24199
61.00 0.21599
61.50 0.19019
62.00 0.17095
62.50 0.15389
63.00 0.13656
63.50 0.11874
64.00 0.10090
64.50 0.08887
65.00 0.07903
65.50 0.06917
66.00 0.05949
66.50 0.05069
67.00 0.04521
67.50 0.03992
68.00 0.03462
68.50 0.02932
69.00 0.02519
69.50 0.02199
70.00 0.01930
70.50 0.01687
71.00 0.01444
71.50 0.01256
72.00 0.01112
72.50 0.00968
73.00 0.00834
73.50 0.00714
74.00 0.00613
74.50 0.00549
75.00 0.00485
75.50 0.00422
76.00 0.00359
76.50 0.00309
77.00 0.00276
77.50 0.00243
78.00 0.00209
78.50 0.00179
79.00 0.00161
79.50 0.00144
80.00 0.00126
80.50 0.00109
81.00 0.00095
81.50 0.00085
82.00 0.00075
82.50 0.00065
83.00 0.00058
83.50 0.00052
84.00 0.00046
84.50 0.00040
85.00 0.00035
85.50 0.00032
86.00 0.00028
86.50 0.00025
87.00 0.00022
87.50 0.00020
88.00 0.00018
88.50 0.00016
89.00 0.00015
89.50 0.00014
90.00 0.00013
90.00 0.00013
90.50 0.00014
91.00 0.00015
91.50 0.00016
92.00 0.00018
92.50 0.00020
93.00 0.00022
93.50 0.00025
94.00 0.00028
94.50 0.00032
95.00 0.00035
95.50 0.00040
96.00 0.00046
96.50 0.00052
97.00 0.00058
97.50 0.00065
98.00 0.00075
98.50 0.00085
99.00 0.00095
99.50 0.00109
100.00 0.00126
100.50 0.00144
101.00 0.00161
101.50 0.00179
102.00 0.00209
102.50 0.00243
103.00 0.00276
103.50 0.00309
104.00 0.00359
104.50 0.00422
105.00 0.00485
105.50 0.00549
106.00 0.00613
106.50 0.00714
107.00 0.00834
107.50 0.00968
108.00 0.01112
108.50 0.01256
109.00 0.01444
109.50 0.01687
110.00 0.01930
110.50 0.02199
111.00 0.02519
111.50 0.02932
112.00 0.03462
112.50 0.03992
113.00 0.04521
113.50 0.05069
114.00 0.05949
114.50 0.06917
115.00 0.07903
115.50 0.08887
116.00 0.10090
116.50 0.11874
117.00 0.13656
117.50 0.15389
118.00 0.17095
118.50 0.19019
119.00 0.21599
119.50 0.24199
120.00 0.26787
120.50 0.29201
121.00 0.31499
121.50 0.33784
122.00 0.36296
122.50 0.39186
123.00 0.40852
123.50 0.42667
124.00 0.44592
124.50 0.46499
125.00 0.48390
125.50 0.50264
126.00 0.51660
126.50 0.52617
127.00 0.53922
127.50 0.55302
128.00 0.56674
128.50 0.58038
129.00 0.59165
129.50 0.59881
130.00 0.60940
130.50 0.62129
131.00 0.63392
131.50 0.64621
132.00 0.65792
132.50 0.67035
133.00 0.68481
133.50 0.69849
134.00 0.71331
134.50 0.72919
135.00 0.74509
135.50 0.76223
136.00 0.77943
136.50 0.79702
137.00 0.81515
137.50 0.83337
138.00 0.85246
138.50 0.87171
139.00 0.89101
139.50 0.91061
140.00 0.93085
140.50 0.95123
141.00 0.97165
141.50 0.99212
142.00 1.01202
142.50 1.03192
143.00 1.05270
143.50 1.07377
144.00 1.09337
144.50 1.11022
145.00 1.12763
145.50 1.14581
146.00 1.16402
146.50 1.18226
147.00 1.19886
147.50 1.21302
148.00 1.22725
148.50 1.24329
149.00 1.25939
149.50 1.27553
150.00 1.29172
150.50 1.30702
151.00 1.32196
151.50 1.33808
152.00 1.35377
152.50 1.36913
153.00 1.38453
153.50 1.39998
154.00 1.41511
154.50 1.43001
155.00 1.44496
155.50 1.45693
156.00 1.46771
156.50 1.47850
157.00 1.48681
157.50 1.49275
158.00 1.49874
158.50 1.50366
159.00 1.50837
159.50 1.51312
160.00 1.51769
160.50 1.51910
161.00 1.52037
161.50 1.52126
162.00 1.52340
162.50 1.52617
163.00 1.52903
163.50 1.53198
164.00 1.53387
164.50 1.53580
165.00 1.53766
165.50 1.53919
166.00 1.54081
166.50 1.54253
167.00 1.54373
167.50 1.54490
168.00 1.54568
168.50 1.54501
169.00 1.54443
169.50 1.54393
170.00 1.54293
170.50 1.54104
171.00 1.53848
171.50 1.53592
172.00 1.53477
172.50 1.53373
173.00 1.53282
173.50 1.53194
174.00 1.53088
174.50 1.52994
175.00 1.52924
175.50 1.52890
176.00 1.52869
176.50 1.52870
177.00 1.52885
177.50 1.52913
178.00 1.52953
178.50 1.52989
179.00 1.53027
179.50 1.53077
180.00 1.53139
180.00 1.53139
180.50 1.53077
181.00 1.53027
181.50 1.52989
182.00 1.52953
182.50 1.52913
183.00 1.52885
183.50 1.52870
184.00 1.52869
184.50 1.52890
185.00 1.52924
185.50 1.52994
186.00 1.53088
186.50 1.53194
187.00 1.53282
187.50 1.53373
188.00 1.53477
188.50 1.53592
189.00 1.53848
189.50 1.54104
190.00 1.54293
190.50 1.54393
191.00 1.54443
191.50 1.54501
192.00 1.54568
192.50 1.54490
193.00 1.54373
193.50 1.54253
194.00 1.54081
194.50 1.53919
195.00 1.53766
195.50 1.53580
196.00 1.53387
196.50 1.53198
197.00 1.52903
197.50 1.52617
198.00 1.52340
198.50 1.52126
199.00 1.52037
199.50 1.51910
200.00 1.51769
200.50 1.51312
201.00 1.50837
201.50 1.50366
202.00 1.49874
202.50 1.49275
203.00 1.48681
203.50 1.47850
204.00 1.46771
204.50 1.45693
205.00 1.44496
205.50 1.43001
206.00 1.41511
206.50 1.39998
207.00 1.38453
207.50 1.36913
208.00 1.35377
208.50 1.33808
209.00 1.32196
209.50 1.30702
210.00 1.29172
210.50 1.27553
211.00 1.25939
211.50 1.24329
212.00 1.22725
212.50 1.21302
213.00 1.19886
213.50 1.18226
214.00 1.16402
214.50 1.14581
215.00 1.12763
215.50 1.11022
216.00 1.09337
216.50 1.07377
217.00 1.05270
217.50 1.03192
218.00 1.01202
218.50 0.99212
219.00 0.97165
219.50 0.95123
220.00 0.93085
220.50 0.91061
221.00 0.89101
221.50 0.87171
222.00 0.85246
222.50 0.83337
223.00 0.81515
223.50 0.79702
224.00 0.77943
224.50 0.76223
225.00 0.74509
225.50 0.72919
226.00 0.71331
226.50 0.69849
227.00 0.68481
227.50 0.67035
228.00 0.65792
228.50 0.64621
229.00 0.63392
229.50 0.62129
230.00 0.60940
230.50 0.59881
231.00 0.59165
231.50 0.58038
232.00 0.56674
232.50 0.55302
233.00 0.53922
233.50 0.52617
234.00 0.51660
234.50 0.50264
235.00 0.48390
235.50 0.46499
236.00 0.44592
236.50 0.42667
237.00 0.40852
237.50 0.39186
238.00 0.36296
238.50 0.33784
239.00 0.31499
239.50 0.29201
240.00 0.26787
240.50 0.24199
241.00 0.21599
241.50 0.19019
242.00 0.17095
242.50 0.15389
243.00 0.13656
243.50 0.11874
244.00 0.10090
244.50 0.08887
245.00 0.07903
245.50 0.06917
246.00 0.05949
246.50 0.05069
247.00 0.04521
247.50 0.03992
248.00 0.03462
248.50 0.02932
249.00 0.02519
249.50 0.02199
250.00 0.01930
250.50 0.01687
251.00 0.01444
251.50 0.01256
252.00 0.01112
252.50 0.00968
253.00 0.00834
253.50 0.00714
254.00 0.00613
254.50 0.00549
255.00 0.00485
255.50 0.00422
256.00 0.00359
256.50 0.00309
257.00 0.00276
257.50 0.00243
258.00 0.00209
258.50 0.00179
259.00 0.00161
259.50 0.00144
260.00 0.00126
260.50 0.00109
261.00 0.00095
261.50 0.00085
262.00 0.00075
262.50 0.00065
263.00 0.00058
263.50 0.00052
264.00 0.00046
264.50 0.00040
265.00 0.00035
265.50 0.00032
266.00 0.00028
266.50 0.00025
267.00 0.00022
267.50 0.00020
268.00 0.00018
268.50 0.00016
269.00 0.00015
269.50 0.00014
270.00 0.00013
270.00 0.00013
270.50 0.00014
271.00 0.00015
271.50 0.00016
272.00 0.00018
272.50 0.00020
273.00 0.00022
273.50 0.00025
274.00 0.00028
274.50 0.00032
275.00 0.00035
275.50 0.00040
276.00 0.00046
276.50 0.00052
277.00 0.00058
277.50 0.00065
278.00 0.00075
278.50 0.00085
279.00 0.00095
279.50 0.00109
280.00 0.00126
280.50 0.00144
281.00 0.00161
281.50 0.00179
282.00 0.00209
282.50 0.00243
283.00 0.00276
283.50 0.00309
284.00 0.00359
284.50 0.00422
285.00 0.00485
285.50 0.00549
286.00 0.00613
286.50 0.00714
287.00 0.00834
287.50 0.00968
288.00 0.01112
288.50 0.01256
289.00 0.01444
289.50 0.01687
290.00 0.01930
290.50 0.02199
291.00 0.02519
291.50 0.02932
292.00 0.03462
292.50 0.03992
293.00 0.04521
293.50 0.05069
294.00 0.05949
294.50 0.06917
295.00 0.07903
295.50 0.08887
296.00 0.10090
296.50 0.11874
297.00 0.13656
297.50 0.15389
298.00 0.17095
298.50 0.19019
299.00 0.21599
299.50 0.24199
300.00 0.26787
300.50 0.29201
301.00 0.31499
301.50 0.33784
302.00 0.36296
302.50 0.39186
303.00 0.40852
303.50 0.42667
304.00 0.44592
304.50 0.46499
305.00 0.48390
305.50 0.50264
306.00 0.51660
306.50 0.52617
307.00 0.53922
307.50 0.55302
308.00 0.56674
308.50 0.58038
309.00 0.59165
309.50 0.59881
310.00 0.60940
310.50 0.62129
311.00 0.63392
311.50 0.64621
312.00 0.65792
312.50 0.67035
313.00 0.68481
313.50 0.69849
314.00 0.71331
314.50 0.72919
315.00 0.74509
315.50 0.76223
316.00 0.77943
316.50 0.79702
317.00 0.81515
317.50 0.83337
318.00 0.85246
318.50 0.87171
319.00 0.89101
319.50 0.91061
320.00 0.93085
320.50 0.95123
321.00 0.97165
321.50 0.99212
322.00 1.01202
322.50 1.03192
323.00 1.05270
323.50 1.07377
324.00 1.09337
324.50 1.11022
325.00 1.12763
325.50 1.14581
326.00 1.16402
326.50 1.18226
327.00 1.19886
327.50 1.21302
328.00 1.22725
328.50 1.24329
329.00 1.25939
329.50 1.27553
330.00 1.29172
330.50 1.30702
331.00 1.32196
331.50 1.33808
332.00 1.35377
332.50 1.36913
333.00 1.38453
333.50 1.39998
334.00 1.41511
334.50 1.43001
335.00 1.44496
335.50 1.45693
336.00 1.46771
336.50 1.47850
337.00 1.48681
337.50 1.49275
338.00 1.49874
338.50 1.50366
339.00 1.50837
339.50 1.51312
340.00 1.51769
340.50 1.51910
341.00 1.52037
341.50 1.52126
342.00 1.52340
342.50 1.52617
343.00 1.52903
343.50 1.53198
344.00 1.53387
344.50 1.53580
345.00 1.53766
345.50 1.53919
346.00 1.54081
346.50 1.54253
347.00 1.54373
347.50 1.54490
348.00 1.54568
348.50 1.54501
349.00 1.54443
349.50 1.54393
350.00 1.54293
350.50 1.54104
351.00 1.53848
351.50 1.53592
352.00 1.53477
352.50 1.53373
353.00 1.53282
353.50 1.53194
354.00 1.53088
354.50 1.52994
355.00 1.52924
355.50 1.52890
356.00 1.52869
356.50 1.52870
357.00 1.52885
357.50 1.52913
358.00 1.52953
358.50 1.52989
359.00 1.53027
359.50 1.53077
360.00 1.53139
