phi[deg] B[T]
0.00 1.52845
0.50 1.52779
1.00 1.52724
1.50 1.52682
2.00 1.52623
2.50 1.52586
3.00 1.52562
3.50 1.52520
4.00 1.52473
4.50 1.52506
5.00 1.52555
5.50 1.52650
6.00 1.52784
6.50 1.52932
7.00 1.53063
7.50 1.53206
8.00 1.53432
8.50 1.53741
9.00 1.54062
9.50 1.54263
10.00 1.54390
10.50 1.54527
11.00 1.54732
11.50 1.54947
12.00 1.55129
12.50 1.55037
13.00 1.54953
13.50 1.54866
14.00 1.54736
14.50 1.54585
15.00 1.54364
15.50 1.54160
16.00 1.53986
16.50 1.53822
17.00 1.53671
17.50 1.53533
18.00 1.53405
18.50 1.53287
19.00 1.53135
19.50 1.52788
20.00 1.52476
20.50 1.52332
21.00 1.52193
21.50 1.52059
22.00 1.51505
22.50 1.50666
23.00 1.49829
23.50 1.49193
24.00 1.48677
24.50 1.47065
25.00 1.45501
25.50 1.44107
26.00 1.42716
26.50 1.41329
27.00 1.39545
27.50 1.37717
28.00 1.35998
28.50 1.34306
29.00 1.32619
29.50 1.30915
30.00 1.29257
30.50 1.27645
31.00 1.26033
31.50 1.24415
32.00 1.22794
32.50 1.21079
33.00 1.19533
33.50 1.18024
34.00 1.16521
34.50 1.14794
35.00 1.13058
35.50 1.11326
36.00 1.09800
36.50 1.08075
37.00 1.06257
37.50 1.04430
38.00 1.02606
38.50 1.00765
39.00 0.98899
39.50 0.96998
40.00 0.95081
40.50 0.93241
41.00 0.91385
41.50 0.89430
42.00 0.87478
42.50 0.85537
43.00 0.83608
43.50 0.81673
44.00 0.79743
44.50 0.77787
45.00 0.75849
45.50 0.73921
46.00 0.72024
46.50 0.70163
47.00 0.68369
47.50 0.66618
48.00 0.65042
48.50 0.63496
49.00 0.61957
49.50 0.60421
50.00 0.59218
50.50 0.58113
51.00 0.57248
51.50 0.55905
52.00 0.54468
52.50 0.53028
53.00 0.52106
53.50 0.51147
54.00 0.50070
54.50 0.48357
55.00 0.46630
55.50 0.44888
56.00 0.43155
56.50 0.41478
57.00 0.39787
57.50 0.37535
58.00 0.35222
58.50 0.32891
59.00 0.30219
59.50 0.27314
60.00 0.24424
60.50 0.22336
61.00 0.20238
61.50 0.18132
62.00 0.15693
62.50 0.13138
63.00 0.11436
63.50 0.09846
64.00 0.08606
64.50 0.07374
65.00 0.06297
65.50 0.05547
66.00 0.04796
66.50 0.04043
67.00 0.03382
67.50 0.02950
68.00 0.02611
68.50 0.02271
69.00 0.01921
69.50 0.01571
70.00 0.01384
70.50 0.01231
71.00 0.01078
71.50 0.00925
72.00 0.00772
72.50 0.00619
73.00 0.00544
73.50 0.00489
74.00 0.00433
74.50 0.00378
75.00 0.00322
75.50 0.00267
76.00 0.00219
76.50 0.00197
77.00 0.00175
77.50 0.00153
78.00 0.00131
78.50 0.00109
79.00 0.00098
79.50 0.00087
80.00 0.00077
80.50 0.00068
81.00 0.00061
81.50 0.00055
82.00 0.00049
82.50 0.00043
83.00 0.00039
83.50 0.00036
84.00 0.00033
84.50 0.00029
85.00 0.00026
85.50 0.00023
86.00 0.00020
86.50 0.00018
87.00 0.00015
87.50 0.00012
88.00 0.00010
88.50 0.00007
89.00 0.00006
89.50 0.00006
90.00 0.00005
90.00 0.00005
90.50 0.00006
91.00 0.00006
91.50 0.00007
92.00 0.00010
92.50 0.00012
93.00 0.00015
93.50 0.00018
94.00 0.00020
94.50 0.00023
95.00 0.00026
95.50 0.00029
96.00 0.00033
96.50 0.00036
97.00 0.00039
97.50 0.00043
98.00 0.00049
98.50 0.00055
99.00 0.00061
99.50 0.00068
100.00 0.00077
100.50 0.00087
101.00 0.00098
101.50 0.00109
102.00 0.00131
102.50 0.00153
103.00 0.00175
103.50 0.00197
104.00 0.00219
104.50 0.00267
105.00 0.00322
105.50 0.00378
106.00 0.00433
106.50 0.00489
107.00 0.00544
107.50 0.00619
108.00 0.00772
108.50 0.00925
109.00 0.01078
109.50 0.01231
110.00 0.01384
110.50 0.01571
111.00 0.01921
111.50 0.02271
112.00 0.02611
112.50 0.02950
113.00 0.03382
113.50 0.04043
114.00 0.04796
114.50 0.05547
115.00 0.06297
115.50 0.07374
116.00 0.08606
116.50 0.09846
117.00 0.11436
117.50 0.13138
118.00 0.15693
118.50 0.18132
119.00 0.20238
119.50 0.22336
120.00 0.24424
120.50 0.27314
121.00 0.30219
121.50 0.32891
122.00 0.35222
122.50 0.37535
123.00 0.39787
123.50 0.41478
124.00 0.43155
124.50 0.44888
125.00 0.46630
125.50 0.48357
126.00 0.50070
126.50 0.51147
127.00 0.52106
127.50 0.53028
128.00 0.54468
128.50 0.55905
129.00 0.57248
129.50 0.58113
130.00 0.59218
130.50 0.60421
131.00 0.61957
131.50 0.63496
132.00 0.65042
132.50 0.66618
133.00 0.68369
133.50 0.70163
134.00 0.72024
134.50 0.73921
135.00 0.75849
135.50 0.77787
136.00 0.79743
136.50 0.81673
137.00 0.83608
137.50 0.85537
138.00 0.87478
138.50 0.89430
139.00 0.91385
139.50 0.93241
140.00 0.95081
140.50 0.96998
141.00 0.98899
141.50 1.00765
142.00 1.02606
142.50 1.04430
143.00 1.06257
143.50 1.08075
144.00 1.09800
144.50 1.11326
145.00 1.13058
145.50 1.14794
146.00 1.16521
146.50 1.18024
147.00 1.19533
147.50 1.21079
148.00 1.22794
148.50 1.24415
149.00 1.26033
149.50 1.27645
150.00 1.29257
150.50 1.30915
151.00 1.32619
151.50 1.34306
152.00 1.35998
152.50 1.37717
153.00 1.39545
153.50 1.41329
154.00 1.42716
154.50 1.44107
155.00 1.45501
155.50 1.47065
156.00 1.48677
156.50 1.49193
157.00 1.49829
157.50 1.50666
158.00 1.51505
158.50 1.52059
159.00 1.52193
159.50 1.52332
160.00 1.52476
160.50 1.52788
161.00 1.53135
161.50 1.53287
162.00 1.53405
162.50 1.53533
163.00 1.53671
163.50 1.53822
164.00 1.53986
164.50 1.54160
165.00 1.54364
165.50 1.54585
166.00 1.54736
166.50 1.54866
167.00 1.54953
167.50 1.55037
168.00 1.55129
168.50 1.54947
169.00 1.54732
169.50 1.54527
170.00 1.54390
170.50 1.54263
171.00 1.54062
171.50 1.53741
172.00 1.53432
172.50 1.53206
173.00 1.53063
173.50 1.52932
174.00 1.52784
174.50 1.52650
175.00 1.52555
175.50 1.52506
176.00 1.52473
176.50 1.52520
177.00 1.52562
177.50 1.52586
178.00 1.52623
178.50 1.52682
179.00 1.52724
179.50 1.52779
180.00 1.52845
180.00 1.52845
180.50 1.52779
181.00 1.52724
181.50 1.52682
182.00 1.52623
182.50 1.52586
183.00 1.52562
183.50 1.52520
184.00 1.52473
184.50 1.52506
185.00 1.52555
185.50 1.52650
186.00 1.52784
186.50 1.52932
187.00 1.53063
187.50 1.53206
188.00 1.53432
188.50 1.53741
189.00 1.54062
189.50 1.54263
190.00 1.54390
190.50 1.54527
191.00 1.54732
191.50 1.54947
192.00 1.55129
192.50 1.55037
193.00 1.54953
193.50 1.54866
194.00 1.54736
194.50 1.54585
195.00 1.54364
195.50 1.54160
196.00 1.53986
196.50 1.53822
197.00 1.53671
197.50 1.53533
198.00 1.53405
198.50 1.53287
199.00 1.53135
199.50 1.52788
200.00 1.52476
200.50 1.52332
201.00 1.52193
201.50 1.52059
202.00 1.51505
202.50 1.50666
203.00 1.49829
203.50 1.49193
204.00 1.48677
204.50 1.47065
205.00 1.45501
205.50 1.44107
206.00 1.42716
206.50 1.41329
207.00 1.39545
207.50 1.37717
208.00 1.35998
208.50 1.34306
209.00 1.32619
209.50 1.30915
210.00 1.29257
210.50 1.27645
211.00 1.26033
211.50 1.24415
212.00 1.22794
212.50 1.21079
213.00 1.19533
213.50 1.18024
214.00 1.16521
214.50 1.14794
215.00 1.13058
215.50 1.11326
216.00 1.09800
216.50 1.08075
217.00 1.06257
217.50 1.04430
218.00 1.02606
218.50 1.00765
219.00 0.98899
219.50 0.96998
220.00 0.95081
220.50 0.93241
221.00 0.91385
221.50 0.89430
222.00 0.87478
222.50 0.85537
223.00 0.83608
223.50 0.81673
224.00 0.79743
224.50 0.77787
225.00 0.75849
225.50 0.73921
226.00 0.72024
226.50 0.70163
227.00 0.68369
227.50 0.66618
228.00 0.65042
228.50 0.63496
229.00 0.61957
229.50 0.60421
230.00 0.59218
230.50 0.58113
231.00 0.57248
231.50 0.55905
232.00 0.54468
232.50 0.53028
233.00 0.52106
233.50 0.51147
234.00 0.50070
234.50 0.48357
235.00 0.46630
235.50 0.44888
236.00 0.43155
236.50 0.41478
237.00 0.39787
237.50 0.37535
238.00 0.35222
238.50 0.32891
239.00 0.30219
239.50 0.27314
240.00 0.24424
240.50 0.22336
241.00 0.20238
241.50 0.18132
242.00 0.15693
242.50 0.13138
243.00 0.11436
243.50 0.09846
244.00 0.08606
244.50 0.07374
245.00 0.06297
245.50 0.05547
246.00 0.04796
246.50 0.04043
247.00 0.03382
247.50 0.02950
248.00 0.02611
248.50 0.02271
249.00 0.01921
249.50 0.01571
250.00 0.01384
250.50 0.01231
251.00 0.01078
251.50 0.00925
252.00 0.00772
252.50 0.00619
253.00 0.00544
253.50 0.00489
254.00 0.00433
254.50 0.00378
255.00 0.00322
255.50 0.00267
256.00 0.00219
256.50 0.00197
257.00 0.00175
257.50 0.00153
258.00 0.00131
258.50 0.00109
259.00 0.00098
259.50 0.00087
260.00 0.00077
260.50 0.00068
261.00 0.00061
261.50 0.00055
262.00 0.00049
262.50 0.00043
263.00 0.00039
263.50 0.00036
264.00 0.00033
264.50 0.00029
265.00 0.00026
265.50 0.00023
266.00 0.00020
266.50 0.00018
267.00 0.00015
267.50 0.00012
268.00 0.00010
268.50 0.00007
269.00 0.00006
269.50 0.00006
270.00 0.00005
270.00 0.00005
270.50 0.00006
271.00 0.00006
271.50 0.00007
272.00 0.00010
272.50 0.00012
273.00 0.00015
273.50 0.00018
274.00 0.00020
274.50 0.00023
275.00 0.00026
275.50 0.00029
276.00 0.00033
276.50 0.00036
277.00 0.00039
277.50 0.00043
278.00 0.00049
278.50 0.00055
279.00 0.00061
279.50 0.00068
280.00 0.00077
280.50 0.00087
281.00 0.00098
281.50 0.00109
282.00 0.00131
282.50 0.00153
283.00 0.00175
283.50 0.00197
284.00 0.00219
284.50 0.00267
285.00 0.00322
285.50 0.00378
286.00 0.00433
286.50 0.00489
287.00 0.00544
287.50 0.00619
288.00 0.00772
288.50 0.00925
289.00 0.01078
289.50 0.01231
290.00 0.01384
290.50 0.01571
291.00 0.01921
291.50 0.02271
292.00 0.02611
292.50 0.02950
293.00 0.03382
293.50 0.04043
294.00 0.04796
294.50 0.05547
295.00 0.06297
295.50 0.07374
296.00 0.08606
296.50 0.09846
297.00 0.11436
297.50 0.13138
298.00 0.15693
298.50 0.18132
299.00 0.20238
299.50 0.22336
300.00 0.24424
300.50 0.27314
301.00 0.30219
301.50 0.32891
302.00 0.35222
302.50 0.37535
303.00 0.39787
303.50 0.41478
304.00 0.43155
304.50 0.44888
305.00 0.46630
305.50 0.48357
306.00 0.50070
306.50 0.51147
307.00 0.52106
307.50 0.53028
308.00 0.54468
308.50 0.55905
309.00 0.57248
309.50 0.58113
310.00 0.59218
310.50 0.60421
311.00 0.61957
311.50 0.63496
312.00 0.65042
312.50 0.66618
313.00 0.68369
313.50 0.70163
314.00 0.72024
314.50 0.73921
315.00 0.75849
315.50 0.77787
316.00 0.79743
316.50 0.81673
317.00 0.83608
317.50 0.85537
318.00 0.87478
318.50 0.89430
319.00 0.91385
319.50 0.93241
320.00 0.95081
320.50 0.96998
321.00 0.98899
321.50 1.00765
322.00 1.02606
322.50 1.04430
323.00 1.06257
323.50 1.08075
324.00 1.09800
324.50 1.11326
325.00 1.13058
325.50 1.14794
326.00 1.16521
326.50 1.18024
327.00 1.19533
327.50 1.21079
328.00 1.22794
328.50 1.24415
329.00 1.26033
329.50 1.27645
330.00 1.29257
330.50 1.30915
331.00 1.32619
331.50 1.34306
332.00 1.35998
332.50 1.37717
333.00 1.39545
333.50 1.41329
334.00 1.42716
334.50 1.44107
335.00 1.45501
335.50 1.47065
336.00 1.48677
336.50 1.49193
337.00 1.49829
337.50 1.50666
338.00 1.51505
338.50 1.52059
339.00 1.52193
339.50 1.52332
340.00 1.52476
340.50 1.52788
341.00 1.53135
341.50 1.53287
342.00 1.53405
342.50 1.53533
343.00 1.53671
343.50 1.53822
344.00 1.53986
344.50 1.54160
345.00 1.54364
345.50 1.54585
346.00 1.54736
346.50 1.54866
347.00 1.54953
347.50 1.55037
348.00 1.55129
348.50 1.54947
349.00 1.54732
349.50 1.54527
350.00 1.54390
350.50 1.54263
351.00 1.54062
351.50 1.53741
352.00 1.53432
352.50 1.53206
353.00 1.53063
353.50 1.52932
354.00 1.52784
354.50 1.52650
355.00 1.52555
355.50 1.52506
356.00 1.52473
356.50 1.52520
357.00 1.52562
357.50 1.52586
358.00 1.52623
358.50 1.52682
359.00 1.52724
359.50 1.52779
360.00 1.52845
