phi[deg] B[T]
0.00 1.48997
0.50 1.48900
1.00 1.48830
1.50 1.48810
2.00 1.48795
2.50 1.48762
3.00 1.48619
3.50 1.48481
4.00 1.48347
4.50 1.48183
5.00 1.47984
5.50 1.47789
6.00 1.47598
6.50 1.47411
7.00 1.47227
7.50 1.46872
8.00 1.46348
8.50 1.45853
9.00 1.45387
9.50 1.44924
10.00 1.44463
10.50 1.44003
11.00 1.43545
11.50 1.43089
12.00 1.42276
12.50 1.41462
13.00 1.40728
13.50 1.39991
14.00 1.39250
14.50 1.38507
15.00 1.37581
15.50 1.36450
16.00 1.35317
16.50 1.34180
17.00 1.33025
17.50 1.31502
18.00 1.30215
18.50 1.28918
19.00 1.27613
19.50 1.26299
20.00 1.24651
20.50 1.22887
21.00 1.21115
21.50 1.19335
22.00 1.17377
22.50 1.15091
23.00 1.12794
23.50 1.10787
24.00 1.08806
24.50 1.06812
25.00 1.04805
25.50 1.02203
26.00 0.99544
26.50 0.96873
27.00 0.94189
27.50 0.91453
28.00 0.88820
28.50 0.86247
29.00 0.83660
29.50 0.81059
30.00 0.78284
30.50 0.75228
31.00 0.72159
31.50 0.69078
32.00 0.65984
32.50 0.62916
33.00 0.60104
33.50 0.57239
34.00 0.54366
34.50 0.51484
35.00 0.48594
35.50 0.45697
36.00 0.42955
36.50 0.40608
37.00 0.38248
37.50 0.35883
38.00 0.33514
38.50 0.31141
39.00 0.28763
39.50 0.27002
40.00 0.25294
40.50 0.23584
41.00 0.21867
41.50 0.20126
42.00 0.18383
42.50 0.17198
43.00 0.16055
43.50 0.14931
44.00 0.13808
44.50 0.12686
45.00 0.11562
45.50 0.10833
46.00 0.10103
46.50 0.09373
47.00 0.08643
47.50 0.07897
48.00 0.07229
48.50 0.06755
49.00 0.06291
49.50 0.05835
50.00 0.05380
50.50 0.04925
51.00 0.04484
51.50 0.04208
52.00 0.03931
52.50 0.03655
53.00 0.03378
53.50 0.03102
54.00 0.02831
54.50 0.02580
55.00 0.02427
55.50 0.02273
56.00 0.02120
56.50 0.01967
57.00 0.01814
57.50 0.01661
58.00 0.01507
58.50 0.01380
59.00 0.01298
59.50 0.01216
60.00 0.01135
60.50 0.01053
61.00 0.00971
61.50 0.00890
62.00 0.00809
62.50 0.00734
63.00 0.00686
63.50 0.00644
64.00 0.00602
64.50 0.00561
65.00 0.00519
65.50 0.00478
66.00 0.00436
66.50 0.00395
67.00 0.00366
67.50 0.00343
68.00 0.00320
68.50 0.00297
69.00 0.00273
69.50 0.00250
70.00 0.00227
70.50 0.00213
71.00 0.00199
71.50 0.00186
72.00 0.00172
72.50 0.00158
73.00 0.00144
73.50 0.00134
74.00 0.00126
74.50 0.00118
75.00 0.00110
75.50 0.00102
76.00 0.00094
76.50 0.00086
77.00 0.00078
77.50 0.00073
78.00 0.00069
78.50 0.00064
79.00 0.00060
79.50 0.00056
80.00 0.00052
80.50 0.00047
81.00 0.00043
81.50 0.00040
82.00 0.00038
82.50 0.00035
83.00 0.00033
83.50 0.00030
84.00 0.00028
84.50 0.00026
85.00 0.00025
85.50 0.00024
86.00 0.00023
86.50 0.00021
87.00 0.00020
87.50 0.00019
88.00 0.00018
88.50 0.00018
89.00 0.00017
89.50 0.00017
90.00 0.00016
90.00 0.00016
90.50 0.00017
91.00 0.00017
91.50 0.00018
92.00 0.00018
92.50 0.00019
93.00 0.00020
93.50 0.00021
94.00 0.00023
94.50 0.00024
95.00 0.00025
95.50 0.00026
96.00 0.00028
96.50 0.00030
97.00 0.00033
97.50 0.00035
98.00 0.00038
98.50 0.00040
99.00 0.00043
99.50 0.00047
100.00 0.00052
100.50 0.00056
101.00 0.00060
101.50 0.00064
102.00 0.00069
102.50 0.00073
103.00 0.00078
103.50 0.00086
104.00 0.00094
104.50 0.00102
105.00 0.00110
105.50 0.00118
106.00 0.00126
106.50 0.00134
107.00 0.00144
107.50 0.00158
108.00 0.00172
108.50 0.00186
109.00 0.00199
109.50 0.00213
110.00 0.00227
110.50 0.00250
111.00 0.00273
111.50 0.00297
112.00 0.00320
112.50 0.00343
113.00 0.00366
113.50 0.00395
114.00 0.00436
114.50 0.00478
115.00 0.00519
115.50 0.00561
116.00 0.00602
116.50 0.00644
117.00 0.00686
117.50 0.00734
118.00 0.00809
118.50 0.00890
119.00 0.00971
119.50 0.01053
120.00 0.01135
120.50 0.01216
121.00 0.01298
121.50 0.01380
122.00 0.01507
122.50 0.01661
123.00 0.01814
123.50 0.01967
124.00 0.02120
124.50 0.02273
125.00 0.02427
125.50 0.02580
126.00 0.02831
126.50 0.03102
127.00 0.03378
127.50 0.03655
128.00 0.03931
128.50 0.04208
129.00 0.04484
129.50 0.04925
130.00 0.05380
130.50 0.05835
131.00 0.06291
131.50 0.06755
132.00 0.07229
132.50 0.07897
133.00 0.08643
133.50 0.09373
134.00 0.10103
134.50 0.10833
135.00 0.11562
135.50 0.12686
136.00 0.13808
136.50 0.14931
137.00 0.16055
137.50 0.17198
138.00 0.18383
138.50 0.20126
139.00 0.21867
139.50 0.23584
140.00 0.25294
140.50 0.27002
141.00 0.28763
141.50 0.31141
142.00 0.33514
142.50 0.35883
143.00 0.38248
143.50 0.40608
144.00 0.42955
144.50 0.45697
145.00 0.48594
145.50 0.51484
146.00 0.54366
146.50 0.57239
147.00 0.60104
147.50 0.62916
148.00 0.65984
148.50 0.69078
149.00 0.72159
149.50 0.75228
150.00 0.78284
150.50 0.81059
151.00 0.83660
151.50 0.86247
152.00 0.88820
152.50 0.91453
153.00 0.94189
153.50 0.96873
154.00 0.99544
154.50 1.02203
155.00 1.04805
155.50 1.06812
156.00 1.08806
156.50 1.10787
157.00 1.12794
157.50 1.15091
158.00 1.17377
158.50 1.19335
159.00 1.21115
159.50 1.22887
160.00 1.24651
160.50 1.26299
161.00 1.27613
161.50 1.28918
162.00 1.30215
162.50 1.31502
163.00 1.33025
163.50 1.34180
164.00 1.35317
164.50 1.36450
165.00 1.37581
165.50 1.38507
166.00 1.39250
166.50 1.39991
167.00 1.40728
167.50 1.41462
168.00 1.42276
168.50 1.43089
169.00 1.43545
169.50 1.44003
170.00 1.44463
170.50 1.44924
171.00 1.45387
171.50 1.45853
172.00 1.46348
172.50 1.46872
173.00 1.47227
173.50 1.47411
174.00 1.47598
174.50 1.47789
175.00 1.47984
175.50 1.48183
176.00 1.48347
176.50 1.48481
177.00 1.48619
177.50 1.48762
178.00 1.48795
178.50 1.48810
179.00 1.48830
179.50 1.48900
180.00 1.48997
180.00 1.48997
180.50 1.48900
181.00 1.48830
181.50 1.48810
182.00 1.48795
182.50 1.48762
183.00 1.48619
183.50 1.48481
184.00 1.48347
184.50 1.48183
185.00 1.47984
185.50 1.47789
186.00 1.47598
186.50 1.47411
187.00 1.47227
187.50 1.46872
188.00 1.46348
188.50 1.45853
189.00 1.45387
189.50 1.44924
190.00 1.44463
190.50 1.44003
191.00 1.43545
191.50 1.43089
192.00 1.42276
192.50 1.41462
193.00 1.40728
193.50 1.39991
194.00 1.39250
194.50 1.38507
195.00 1.37581
195.50 1.36450
196.00 1.35317
196.50 1.34180
197.00 1.33025
197.50 1.31502
198.00 1.30215
198.50 1.28918
199.00 1.27613
199.50 1.26299
200.00 1.24651
200.50 1.22887
201.00 1.21115
201.50 1.19335
202.00 1.17377
202.50 1.15091
203.00 1.12794
203.50 1.10787
204.00 1.08806
204.50 1.06812
205.00 1.04805
205.50 1.02203
206.00 0.99544
206.50 0.96873
207.00 0.94189
207.50 0.91453
208.00 0.88820
208.50 0.86247
209.00 0.83660
209.50 0.81059
210.00 0.78284
210.50 0.75228
211.00 0.72159
211.50 0.69078
212.00 0.65984
212.50 0.62916
213.00 0.60104
213.50 0.57239
214.00 0.54366
214.50 0.51484
215.00 0.48594
215.50 0.45697
216.00 0.42955
216.50 0.40608
217.00 0.38248
217.50 0.35883
218.00 0.33514
218.50 0.31141
219.00 0.28763
219.50 0.27002
220.00 0.25294
220.50 0.23584
221.00 0.21867
221.50 0.20126
222.00 0.18383
222.50 0.17198
223.00 0.16055
223.50 0.14931
224.00 0.13808
224.50 0.12686
225.00 0.11562
225.50 0.10833
226.00 0.10103
226.50 0.09373
227.00 0.08643
227.50 0.07897
228.00 0.07229
228.50 0.06755
229.00 0.06291
229.50 0.05835
230.00 0.05380
230.50 0.04925
231.00 0.04484
231.50 0.04208
232.00 0.03931
232.50 0.03655
233.00 0.03378
233.50 0.03102
234.00 0.02831
234.50 0.02580
235.00 0.02427
235.50 0.02273
236.00 0.02120
236.50 0.01967
237.00 0.01814
237.50 0.01661
238.00 0.01507
238.50 0.01380
239.00 0.01298
239.50 0.01216
240.00 0.01135
240.50 0.01053
241.00 0.00971
241.50 0.00890
242.00 0.00809
242.50 0.00734
243.00 0.00686
243.50 0.00644
244.00 0.00602
244.50 0.00561
245.00 0.00519
245.50 0.00478
246.00 0.00436
246.50 0.00395
247.00 0.00366
247.50 0.00343
248.00 0.00320
248.50 0.00297
249.00 0.00273
249.50 0.00250
250.00 0.00227
250.50 0.00213
251.00 0.00199
251.50 0.00186
252.00 0.00172
252.50 0.00158
253.00 0.00144
253.50 0.00134
254.00 0.00126
254.50 0.00118
255.00 0.00110
255.50 0.00102
256.00 0.00094
256.50 0.00086
257.00 0.00078
257.50 0.00073
258.00 0.00069
258.50 0.00064
259.00 0.00060
259.50 0.00056
260.00 0.00052
260.50 0.00047
261.00 0.00043
261.50 0.00040
262.00 0.00038
262.50 0.00035
263.00 0.00033
263.50 0.00030
264.00 0.00028
264.50 0.00026
265.00 0.00025
265.50 0.00024
266.00 0.00023
266.50 0.00021
267.00 0.00020
267.50 0.00019
268.00 0.00018
268.50 0.00018
269.00 0.00017
269.50 0.00017
270.00 0.00016
270.00 0.00016
270.50 0.00017
271.00 0.00017
271.50 0.00018
272.00 0.00018
272.50 0.00019
273.00 0.00020
273.50 0.00021
274.00 0.00023
274.50 0.00024
275.00 0.00025
275.50 0.00026
276.00 0.00028
276.50 0.00030
277.00 0.00033
277.50 0.00035
278.00 0.00038
278.50 0.00040
279.00 0.00043
279.50 0.00047
280.00 0.00052
280.50 0.00056
281.00 0.00060
281.50 0.00064
282.00 0.00069
282.50 0.00073
283.00 0.00078
283.50 0.00086
284.00 0.00094
284.50 0.00102
285.00 0.00110
285.50 0.00118
286.00 0.00126
286.50 0.00134
287.00 0.00144
287.50 0.00158
288.00 0.00172
288.50 0.00186
289.00 0.00199
289.50 0.00213
290.00 0.00227
290.50 0.00250
291.00 0.00273
291.50 0.00297
292.00 0.00320
292.50 0.00343
293.00 0.00366
293.50 0.00395
294.00 0.00436
294.50 0.00478
295.00 0.00519
295.50 0.00561
296.00 0.00602
296.50 0.00644
297.00 0.00686
297.50 0.00734
298.00 0.00809
298.50 0.00890
299.00 0.00971
299.50 0.01053
300.00 0.01135
300.50 0.01216
301.00 0.01298
301.50 0.01380
302.00 0.01507
302.50 0.01661
303.00 0.01814
303.50 0.01967
304.00 0.02120
304.50 0.02273
305.00 0.02427
305.50 0.02580
306.00 0.02831
306.50 0.03102
307.00 0.03378
307.50 0.03655
308.00 0.03931
308.50 0.04208
309.00 0.04484
309.50 0.04925
310.00 0.05380
310.50 0.05835
311.00 0.06291
311.50 0.06755
312.00 0.07229
312.50 0.07897
313.00 0.08643
313.50 0.09373
314.00 0.10103
314.50 0.10833
315.00 0.11562
315.50 0.12686
316.00 0.13808
316.50 0.14931
317.00 0.16055
317.50 0.17198
318.00 0.18383
318.50 0.20126
319.00 0.21867
319.50 0.23584
320.00 0.25294
320.50 0.27002
321.00 0.28763
321.50 0.31141
322.00 0.33514
322.50 0.35883
323.00 0.38248
323.50 0.40608
324.00 0.42955
324.50 0.45697
325.00 0.48594
325.50 0.51484
326.00 0.54366
326.50 0.57239
327.00 0.60104
327.50 0.62916
328.00 0.65984
328.50 0.69078
329.00 0.72159
329.50 0.75228
330.00 0.78284
330.50 0.81059
331.00 0.83660
331.50 0.86247
332.00 0.88820
332.50 0.91453
333.00 0.94189
333.50 0.96873
334.00 0.99544
334.50 1.02203
335.00 1.04805
335.50 1.06812
336.00 1.08806
336.50 1.10787
337.00 1.12794
337.50 1.15091
338.00 1.17377
338.50 1.19335
339.00 1.21115
339.50 1.22887
340.00 1.24651
340.50 1.26299
341.00 1.27613
341.50 1.28918
342.00 1.30215
342.50 1.31502
343.00 1.33025
343.50 1.34180
344.00 1.35317
344.50 1.36450
345.00 1.37581
345.50 1.38507
346.00 1.39250
346.50 1.39991
347.00 1.40728
347.50 1.41462
348.00 1.42276
348.50 1.43089
349.00 1.43545
349.50 1.44003
350.00 1.44463
350.50 1.44924
351.00 1.45387
351.50 1.45853
352.00 1.46348
352.50 1.46872
353.00 1.47227
353.50 1.47411
354.00 1.47598
354.50 1.47789
355.00 1.47984
355.50 1.48183
356.00 1.48347
356.50 1.48481
357.00 1.48619
357.50 1.48762
358.00 1.48795
358.50 1.48810
359.00 1.48830
359.50 1.48900
360.00 1.48997
