phi[deg] B[T]
0.00 1.97398
0.50 1.97396
1.00 1.97408
1.50 1.97436
2.00 1.97479
2.50 1.97543
3.00 1.97567
3.50 1.97677
4.00 1.97800
4.50 1.97937
5.00 1.98089
5.50 1.98254
6.00 1.98449
6.50 1.98658
7.00 1.98881
7.50 1.98958
8.00 1.99032
8.50 1.99155
9.00 1.99336
9.50 1.99530
10.00 1.99736
10.50 1.99692
11.00 1.99571
11.50 1.99521
12.00 1.99515
12.50 1.99519
13.00 1.99534
13.50 1.99535
14.00 1.99395
14.50 1.99166
15.00 1.98686
15.50 1.98277
16.00 1.98047
16.50 1.97824
17.00 1.97608
17.50 1.97286
18.00 1.96620
18.50 1.95961
19.00 1.95334
19.50 1.94941
20.00 1.94553
20.50 1.93983
21.00 1.93133
21.50 1.92286
22.00 1.91325
22.50 1.90221
23.00 1.89118
23.50 1.88017
24.00 1.86601
24.50 1.85113
25.00 1.83628
25.50 1.82131
26.00 1.80372
26.50 1.78648
27.00 1.76938
27.50 1.75229
28.00 1.73430
28.50 1.71515
29.00 1.69583
29.50 1.67543
30.00 1.65504
30.50 1.63467
31.00 1.61251
31.50 1.58940
32.00 1.56837
32.50 1.54733
33.00 1.52630
33.50 1.50409
34.00 1.48032
34.50 1.45655
35.00 1.43201
35.50 1.40664
36.00 1.38126
36.50 1.35589
37.00 1.33027
37.50 1.30407
38.00 1.27850
38.50 1.25294
39.00 1.22739
39.50 1.20168
40.00 1.17589
40.50 1.15115
41.00 1.12641
41.50 1.10167
42.00 1.07665
42.50 1.05264
43.00 1.02932
43.50 1.00610
44.00 0.98319
44.50 0.96028
45.00 0.93715
45.50 0.91499
46.00 0.89334
46.50 0.87168
47.00 0.85081
47.50 0.83060
48.00 0.80932
48.50 0.78723
49.00 0.76730
49.50 0.74769
50.00 0.72772
50.50 0.70656
51.00 0.68758
51.50 0.66855
52.00 0.64946
52.50 0.63021
53.00 0.60803
53.50 0.58757
54.00 0.56787
54.50 0.54809
55.00 0.52825
55.50 0.50812
56.00 0.48611
56.50 0.46616
57.00 0.44613
57.50 0.42602
58.00 0.40589
58.50 0.38653
59.00 0.36709
59.50 0.34567
60.00 0.32417
60.50 0.30262
61.00 0.28100
61.50 0.25980
62.00 0.24403
62.50 0.22843
63.00 0.21278
63.50 0.19708
64.00 0.18133
64.50 0.16480
65.00 0.15395
65.50 0.14331
66.00 0.13265
66.50 0.12194
67.00 0.11112
67.50 0.10029
68.00 0.09166
68.50 0.08569
69.00 0.07971
69.50 0.07373
70.00 0.06764
70.50 0.06154
71.00 0.05544
71.50 0.04970
72.00 0.04615
72.50 0.04284
73.00 0.03952
73.50 0.03622
74.00 0.03291
74.50 0.02961
75.00 0.02724
75.50 0.02541
76.00 0.02359
76.50 0.02176
77.00 0.01994
77.50 0.01805
78.00 0.01616
78.50 0.01493
79.00 0.01395
79.50 0.01298
80.00 0.01200
80.50 0.01103
81.00 0.01005
81.50 0.00910
82.00 0.00842
82.50 0.00786
83.00 0.00733
83.50 0.00680
84.00 0.00627
84.50 0.00580
85.00 0.00552
85.50 0.00524
86.00 0.00496
86.50 0.00468
87.00 0.00438
87.50 0.00428
88.00 0.00417
88.50 0.00405
89.00 0.00393
89.50 0.00382
90.00 0.00370
90.00 0.00370
90.50 0.00382
91.00 0.00393
91.50 0.00405
92.00 0.00417
92.50 0.00428
93.00 0.00438
93.50 0.00468
94.00 0.00496
94.50 0.00524
95.00 0.00552
95.50 0.00580
96.00 0.00627
96.50 0.00680
97.00 0.00733
97.50 0.00786
98.00 0.00842
98.50 0.00910
99.00 0.01005
99.50 0.01103
100.00 0.01200
100.50 0.01298
101.00 0.01395
101.50 0.01493
102.00 0.01616
102.50 0.01805
103.00 0.01994
103.50 0.02176
104.00 0.02359
104.50 0.02541
105.00 0.02724
105.50 0.02961
106.00 0.03291
106.50 0.03622
107.00 0.03952
107.50 0.04284
108.00 0.04615
108.50 0.04970
109.00 0.05544
109.50 0.06154
110.00 0.06764
110.50 0.07373
111.00 0.07971
111.50 0.08569
112.00 0.09166
112.50 0.10029
113.00 0.11112
113.50 0.12194
114.00 0.13265
114.50 0.14331
115.00 0.15395
115.50 0.16480
116.00 0.18133
116.50 0.19708
117.00 0.21278
117.50 0.22843
118.00 0.24403
118.50 0.25980
119.00 0.28100
119.50 0.30262
120.00 0.32417
120.50 0.34567
121.00 0.36709
121.50 0.38653
122.00 0.40589
122.50 0.42602
123.00 0.44613
123.50 0.46616
124.00 0.48611
124.50 0.50812
125.00 0.52825
125.50 0.54809
126.00 0.56787
126.50 0.58757
127.00 0.60803
127.50 0.63021
128.00 0.64946
128.50 0.66855
129.00 0.68758
129.50 0.70656
130.00 0.72772
130.50 0.74769
131.00 0.76730
131.50 0.78723
132.00 0.80932
132.50 0.83060
133.00 0.85081
133.50 0.87168
134.00 0.89334
134.50 0.91499
135.00 0.93715
135.50 0.96028
136.00 0.98319
136.50 1.00610
137.00 1.02932
137.50 1.05264
138.00 1.07665
138.50 1.10167
139.00 1.12641
139.50 1.15115
140.00 1.17589
140.50 1.20168
141.00 1.22739
141.50 1.25294
142.00 1.27850
142.50 1.30407
143.00 1.33027
143.50 1.35589
144.00 1.38126
144.50 1.40664
145.00 1.43201
145.50 1.45655
146.00 1.48032
146.50 1.50409
147.00 1.52630
147.50 1.54733
148.00 1.56837
148.50 1.58940
149.00 1.61251
149.50 1.63467
150.00 1.65504
150.50 1.67543
151.00 1.69583
151.50 1.71515
152.00 1.73430
152.50 1.75229
153.00 1.76938
153.50 1.78648
154.00 1.80372
154.50 1.82131
155.00 1.83628
155.50 1.85113
156.00 1.86601
156.50 1.88017
157.00 1.89118
157.50 1.90221
158.00 1.91325
158.50 1.92286
159.00 1.93133
159.50 1.93983
160.00 1.94553
160.50 1.94941
161.00 1.95334
161.50 1.95961
162.00 1.96620
162.50 1.97286
163.00 1.97608
163.50 1.97824
164.00 1.98047
164.50 1.98277
165.00 1.98686
165.50 1.99166
166.00 1.99395
166.50 1.99535
167.00 1.99534
167.50 1.99519
168.00 1.99515
168.50 1.99521
169.00 1.99571
169.50 1.99692
170.00 1.99736
170.50 1.99530
171.00 1.99336
171.50 1.99155
172.00 1.99032
172.50 1.98958
173.00 1.98881
173.50 1.98658
174.00 1.98449
174.50 1.98254
175.00 1.98089
175.50 1.97937
176.00 1.97800
176.50 1.97677
177.00 1.97567
177.50 1.97543
178.00 1.97479
178.50 1.97436
179.00 1.97408
179.50 1.97396
180.00 1.97398
180.00 1.97398
180.50 1.97396
181.00 1.97408
181.50 1.97436
182.00 1.97479
182.50 1.97543
183.00 1.97567
183.50 1.97677
184.00 1.97800
184.50 1.97937
185.00 1.98089
185.50 1.98254
186.00 1.98449
186.50 1.98658
187.00 1.98881
187.50 1.98958
188.00 1.99032
188.50 1.99155
189.00 1.99336
189.50 1.99530
190.00 1.99736
190.50 1.99692
191.00 1.99571
191.50 1.99521
192.00 1.99515
192.50 1.99519
193.00 1.99534
193.50 1.99535
194.00 1.99395
194.50 1.99166
195.00 1.98686
195.50 1.98277
196.00 1.98047
196.50 1.97824
197.00 1.97608
197.50 1.97286
198.00 1.96620
198.50 1.95961
199.00 1.95334
199.50 1.94941
200.00 1.94553
200.50 1.93983
201.00 1.93133
201.50 1.92286
202.00 1.91325
202.50 1.90221
203.00 1.89118
203.50 1.88017
204.00 1.86601
204.50 1.85113
205.00 1.83628
205.50 1.82131
206.00 1.80372
206.50 1.78648
207.00 1.76938
207.50 1.75229
208.00 1.73430
208.50 1.71515
209.00 1.69583
209.50 1.67543
210.00 1.65504
210.50 1.63467
211.00 1.61251
211.50 1.58940
212.00 1.56837
212.50 1.54733
213.00 1.52630
213.50 1.50409
214.00 1.48032
214.50 1.45655
215.00 1.43201
215.50 1.40664
216.00 1.38126
216.50 1.35589
217.00 1.33027
217.50 1.30407
218.00 1.27850
218.50 1.25294
219.00 1.22739
219.50 1.20168
220.00 1.17589
220.50 1.15115
221.00 1.12641
221.50 1.10167
222.00 1.07665
222.50 1.05264
223.00 1.02932
223.50 1.00610
224.00 0.98319
224.50 0.96028
225.00 0.93715
225.50 0.91499
226.00 0.89334
226.50 0.87168
227.00 0.85081
227.50 0.83060
228.00 0.80932
228.50 0.78723
229.00 0.76730
229.50 0.74769
230.00 0.72772
230.50 0.70656
231.00 0.68758
231.50 0.66855
232.00 0.64946
232.50 0.63021
233.00 0.60803
233.50 0.58757
234.00 0.56787
234.50 0.54809
235.00 0.52825
235.50 0.50812
236.00 0.48611
236.50 0.46616
237.00 0.44613
237.50 0.42602
238.00 0.40589
238.50 0.38653
239.00 0.36709
239.50 0.34567
240.00 0.32417
240.50 0.30262
241.00 0.28100
241.50 0.25980
242.00 0.24403
242.50 0.22843
243.00 0.21278
243.50 0.19708
244.00 0.18133
244.50 0.16480
245.00 0.15395
245.50 0.14331
246.00 0.13265
246.50 0.12194
247.00 0.11112
247.50 0.10029
248.00 0.09166
248.50 0.08569
249.00 0.07971
249.50 0.07373
250.00 0.06764
250.50 0.06154
251.00 0.05544
251.50 0.04970
252.00 0.04615
252.50 0.04284
253.00 0.03952
253.50 0.03622
254.00 0.03291
254.50 0.02961
255.00 0.02724
255.50 0.02541
256.00 0.02359
256.50 0.02176
257.00 0.01994
257.50 0.01805
258.00 0.01616
258.50 0.01493
259.00 0.01395
259.50 0.01298
260.00 0.01200
260.50 0.01103
261.00 0.01005
261.50 0.00910
262.00 0.00842
262.50 0.00786
263.00 0.00733
263.50 0.00680
264.00 0.00627
264.50 0.00580
265.00 0.00552
265.50 0.00524
266.00 0.00496
266.50 0.00468
267.00 0.00438
267.50 0.00428
268.00 0.00417
268.50 0.00405
269.00 0.00393
269.50 0.00382
270.00 0.00370
270.00 0.00370
270.50 0.00382
271.00 0.00393
271.50 0.00405
272.00 0.00417
272.50 0.00428
273.00 0.00438
273.50 0.00468
274.00 0.00496
274.50 0.00524
275.00 0.00552
275.50 0.00580
276.00 0.00627
276.50 0.00680
277.00 0.00733
277.50 0.00786
278.00 0.00842
278.50 0.00910
279.00 0.01005
279.50 0.01103
280.00 0.01200
280.50 0.01298
281.00 0.01395
281.50 0.01493
282.00 0.01616
282.50 0.01805
283.00 0.01994
283.50 0.02176
284.00 0.02359
284.50 0.02541
285.00 0.02724
285.50 0.02961
286.00 0.03291
286.50 0.03622
287.00 0.03952
287.50 0.04284
288.00 0.04615
288.50 0.04970
289.00 0.05544
289.50 0.06154
290.00 0.06764
290.50 0.07373
291.00 0.07971
291.50 0.08569
292.00 0.09166
292.50 0.10029
293.00 0.11112
293.50 0.12194
294.00 0.13265
294.50 0.14331
295.00 0.15395
295.50 0.16480
296.00 0.18133
296.50 0.19708
297.00 0.21278
297.50 0.22843
298.00 0.24403
298.50 0.25980
299.00 0.28100
299.50 0.30262
300.00 0.32417
300.50 0.34567
301.00 0.36709
301.50 0.38653
302.00 0.40589
302.50 0.42602
303.00 0.44613
303.50 0.46616
304.00 0.48611
304.50 0.50812
305.00 0.52825
305.50 0.54809
306.00 0.56787
306.50 0.58757
307.00 0.60803
307.50 0.63021
308.00 0.64946
308.50 0.66855
309.00 0.68758
309.50 0.70656
310.00 0.72772
310.50 0.74769
311.00 0.76730
311.50 0.78723
312.00 0.80932
312.50 0.83060
313.00 0.85081
313.50 0.87168
314.00 0.89334
314.50 0.91499
315.00 0.93715
315.50 0.96028
316.00 0.98319
316.50 1.00610
317.00 1.02932
317.50 1.05264
318.00 1.07665
318.50 1.10167
319.00 1.12641
319.50 1.15115
320.00 1.17589
320.50 1.20168
321.00 1.22739
321.50 1.25294
322.00 1.27850
322.50 1.30407
323.00 1.33027
323.50 1.35589
324.00 1.38126
324.50 1.40664
325.00 1.43201
325.50 1.45655
326.00 1.48032
326.50 1.50409
327.00 1.52630
327.50 1.54733
328.00 1.56837
328.50 1.58940
329.00 1.61251
329.50 1.63467
330.00 1.65504
330.50 1.67543
331.00 1.69583
331.50 1.71515
332.00 1.73430
332.50 1.75229
333.00 1.76938
333.50 1.78648
334.00 1.80372
334.50 1.82131
335.00 1.83628
335.50 1.85113
336.00 1.86601
336.50 1.88017
337.00 1.89118
337.50 1.90221
338.00 1.91325
338.50 1.92286
339.00 1.93133
339.50 1.93983
340.00 1.94553
340.50 1.94941
341.00 1.95334
341.50 1.95961
342.00 1.96620
342.50 1.97286
343.00 1.97608
343.50 1.97824
344.00 1.98047
344.50 1.98277
345.00 1.98686
345.50 1.99166
346.00 1.99395
346.50 1.99535
347.00 1.99534
347.50 1.99519
348.00 1.99515
348.50 1.99521
349.00 1.99571
349.50 1.99692
350.00 1.99736
350.50 1.99530
351.00 1.99336
351.50 1.99155
352.00 1.99032
352.50 1.98958
353.00 1.98881
353.50 1.98658
354.00 1.98449
354.50 1.98254
355.00 1.98089
355.50 1.97937
356.00 1.97800
356.50 1.97677
357.00 1.97567
357.50 1.97543
358.00 1.97479
358.50 1.97436
359.00 1.97408
359.50 1.97396
360.00 1.97398
