phi[deg] B[T]
0.00 1.53607
0.50 1.53541
1.00 1.53487
1.50 1.53444
2.00 1.53402
2.50 1.53354
3.00 1.53319
3.50 1.53295
4.00 1.53285
4.50 1.53296
5.00 1.53320
5.50 1.53379
6.00 1.53461
6.50 1.53555
7.00 1.53630
7.50 1.53708
8.00 1.53798
8.50 1.53900
9.00 1.54144
9.50 1.54387
10.00 1.54560
10.50 1.54644
11.00 1.54677
11.50 1.54719
12.00 1.54769
12.50 1.54670
13.00 1.54530
13.50 1.54388
14.00 1.54198
14.50 1.54016
15.00 1.53843
15.50 1.53635
16.00 1.53417
16.50 1.53206
17.00 1.52893
17.50 1.52590
18.00 1.52295
18.50 1.52062
19.00 1.51952
19.50 1.51807
20.00 1.51649
20.50 1.51181
21.00 1.50695
21.50 1.50214
22.00 1.49713
22.50 1.49110
23.00 1.48511
23.50 1.47680
24.00 1.46605
24.50 1.45531
25.00 1.44342
25.50 1.42866
26.00 1.41393
26.50 1.39896
27.00 1.38367
27.50 1.36843
28.00 1.35323
28.50 1.33773
29.00 1.32185
29.50 1.30713
30.00 1.29203
30.50 1.27598
31.00 1.25999
31.50 1.24404
32.00 1.22814
32.50 1.21407
33.00 1.20007
33.50 1.18356
34.00 1.16537
34.50 1.14721
35.00 1.12907
35.50 1.11169
36.00 1.09487
36.50 1.07522
37.00 1.05407
37.50 1.03321
38.00 1.01327
38.50 0.99332
39.00 0.97276
39.50 0.95224
40.00 0.93177
40.50 0.91144
41.00 0.89177
41.50 0.87240
42.00 0.85307
42.50 0.83391
43.00 0.81563
43.50 0.79744
44.00 0.77980
44.50 0.76255
45.00 0.74537
45.50 0.72945
46.00 0.71353
46.50 0.69869
47.00 0.68499
47.50 0.67052
48.00 0.65808
48.50 0.64636
49.00 0.63406
49.50 0.62143
50.00 0.60953
50.50 0.59893
51.00 0.59177
51.50 0.58049
52.00 0.56685
52.50 0.55312
53.00 0.53931
53.50 0.52625
54.00 0.51667
54.50 0.50270
55.00 0.48396
55.50 0.46504
56.00 0.44596
56.50 0.42671
57.00 0.40855
57.50 0.39188
58.00 0.36298
58.50 0.33786
59.00 0.31500
59.50 0.29202
60.00 0.26788
60.50 0.24200
61.00 0.21600
61.50 0.19019
62.00 0.17095
62.50 0.15389
63.00 0.13656
63.50 0.11874
64.00 0.10090
64.50 0.08887
65.00 0.07903
65.50 0.06917
66.00 0.05949
66.50 0.05069
67.00 0.04521
67.50 0.03992
68.00 0.03462
68.50 0.02932
69.00 0.02519
69.50 0.02199
70.00 0.01930
70.50 0.01687
71.00 0.01444
71.50 0.01256
72.00 0.01112
72.50 0.00968
73.00 0.00834
73.50 0.00714
74.00 0.00613
74.50 0.00549
75.00 0.00485
75.50 0.00422
76.00 0.00359
76.50 0.00309
77.00 0.00276
77.50 0.00243
78.00 0.00209
78.50 0.00179
79.00 0.00161
79.50 0.00144
80.00 0.00126
80.50 0.00109
81.00 0.00095
81.50 0.00085
82.00 0.00075
82.50 0.00065
83.00 0.00058
83.50 0.00052
84.00 0.00046
84.50 0.00040
85.00 0.00035
85.50 0.00032
86.00 0.00028
86.50 0.00025
87.00 0.00022
87.50 0.00020
88.00 0.00018
88.50 0.00016
89.00 0.00015
89.50 0.00014
90.00 0.00013
90.00 0.00013
90.50 0.00014
91.00 0.00015
91.50 0.00016
92.00 0.00018
92.50 0.00020
93.00 0.00022
93.50 0.00025
94.00 0.00028
94.50 0.00032
95.00 0.00035
95.50 0.00040
96.00 0.00046
96.50 0.00052
97.00 0.00058
97.50 0.00065
98.00 0.00075
98.50 0.00085
99.00 0.00095
99.50 0.00109
100.00 0.00126
100.50 0.00144
101.00 0.00161
101.50 0.00179
102.00 0.00209
102.50 0.00243
103.00 0.00276
103.50 0.00309
104.00 0.00359
104.50 0.00422
105.00 0.00485
105.50 0.00549
106.00 0.00613
106.50 0.00714
107.00 0.00834
107.50 0.00968
108.00 0.01112
108.50 0.01256
109.00 0.01444
109.50 0.01687
110.00 0.01930
110.50 0.02199
111.00 0.02519
111.50 0.02932
112.00 0.03462
112.50 0.03992
113.00 0.04521
113.50 0.05069
114.00 0.05949
114.50 0.06917
115.00 0.07903
115.50 0.08887
116.00 0.10090
116.50 0.11874
117.00 0.13656
117.50 0.15389
118.00 0.17095
118.50 0.19019
119.00 0.21600
119.50 0.24200
120.00 0.26788
120.50 0.29202
121.00 0.31500
121.50 0.33786
122.00 0.36298
122.50 0.39188
123.00 0.40855
123.50 0.42671
124.00 0.44596
124.50 0.46504
125.00 0.48396
125.50 0.50270
126.00 0.51667
126.50 0.52625
127.00 0.53931
127.50 0.55312
128.00 0.56685
128.50 0.58049
129.00 0.59177
129.50 0.59893
130.00 0.60953
130.50 0.62143
131.00 0.63406
131.50 0.64636
132.00 0.65808
132.50 0.67052
133.00 0.68499
133.50 0.69869
134.00 0.71353
134.50 0.72945
135.00 0.74537
135.50 0.76255
136.00 0.77980
136.50 0.79744
137.00 0.81563
137.50 0.83391
138.00 0.85307
138.50 0.87240
139.00 0.89177
139.50 0.91144
140.00 0.93177
140.50 0.95224
141.00 0.97276
141.50 0.99332
142.00 1.01327
142.50 1.03321
143.00 1.05407
143.50 1.07522
144.00 1.09487
144.50 1.11169
145.00 1.12907
145.50 1.14721
146.00 1.16537
146.50 1.18356
147.00 1.20007
147.50 1.21407
148.00 1.22814
148.50 1.24404
149.00 1.25999
149.50 1.27598
150.00 1.29203
150.50 1.30713
151.00 1.32185
151.50 1.33773
152.00 1.35323
152.50 1.36843
153.00 1.38367
153.50 1.39896
154.00 1.41393
154.50 1.42866
155.00 1.44342
155.50 1.45531
156.00 1.46605
156.50 1.47680
157.00 1.48511
157.50 1.49110
158.00 1.49713
158.50 1.50214
159.00 1.50695
159.50 1.51181
160.00 1.51649
160.50 1.51807
161.00 1.51952
161.50 1.52062
162.00 1.52295
162.50 1.52590
163.00 1.52893
163.50 1.53206
164.00 1.53417
164.50 1.53635
165.00 1.53843
165.50 1.54016
166.00 1.54198
166.50 1.54388
167.00 1.54530
167.50 1.54670
168.00 1.54769
168.50 1.54719
169.00 1.54677
169.50 1.54644
170.00 1.54560
170.50 1.54387
171.00 1.54144
171.50 1.53900
172.00 1.53798
172.50 1.53708
173.00 1.53630
173.50 1.53555
174.00 1.53461
174.50 1.53379
175.00 1.53320
175.50 1.53296
176.00 1.53285
176.50 1.53295
177.00 1.53319
177.50 1.53354
178.00 1.53402
178.50 1.53444
179.00 1.53487
179.50 1.53541
180.00 1.53607
180.00 1.53607
180.50 1.53541
181.00 1.53487
181.50 1.53444
182.00 1.53402
182.50 1.53354
183.00 1.53319
183.50 1.53295
184.00 1.53285
184.50 1.53296
185.00 1.53320
185.50 1.53379
186.00 1.53461
186.50 1.53555
187.00 1.53630
187.50 1.53708
188.00 1.53798
188.50 1.53900
189.00 1.54144
189.50 1.54387
190.00 1.54560
190.50 1.54644
191.00 1.54677
191.50 1.54719
192.00 1.54769
192.50 1.54670
193.00 1.54530
193.50 1.54388
194.00 1.54198
194.50 1.54016
195.00 1.53843
195.50 1.53635
196.00 1.53417
196.50 1.53206
197.00 1.52893
197.50 1.52590
198.00 1.52295
198.50 1.52062
199.00 1.51952
199.50 1.51807
200.00 1.51649
200.50 1.51181
201.00 1.50695
201.50 1.50214
202.00 1.49713
202.50 1.49110
203.00 1.48511
203.50 1.47680
204.00 1.46605
204.50 1.45531
205.00 1.44342
205.50 1.42866
206.00 1.41393
206.50 1.39896
207.00 1.38367
207.50 1.36843
208.00 1.35323
208.50 1.33773
209.00 1.32185
209.50 1.30713
210.00 1.29203
210.50 1.27598
211.00 1.25999
211.50 1.24404
212.00 1.22814
212.50 1.21407
213.00 1.20007
213.50 1.18356
214.00 1.16537
214.50 1.14721
215.00 1.12907
215.50 1.11169
216.00 1.09487
216.50 1.07522
217.00 1.05407
217.50 1.03321
218.00 1.01327
218.50 0.99332
219.00 0.97276
219.50 0.95224
220.00 0.93177
220.50 0.91144
221.00 0.89177
221.50 0.87240
222.00 0.85307
222.50 0.83391
223.00 0.81563
223.50 0.79744
224.00 0.77980
224.50 0.76255
225.00 0.74537
225.50 0.72945
226.00 0.71353
226.50 0.69869
227.00 0.68499
227.50 0.67052
228.00 0.65808
228.50 0.64636
229.00 0.63406
229.50 0.62143
230.00 0.60953
230.50 0.59893
231.00 0.59177
231.50 0.58049
232.00 0.56685
232.50 0.55312
233.00 0.53931
233.50 0.52625
234.00 0.51667
234.50 0.50270
235.00 0.48396
235.50 0.46504
236.00 0.44596
236.50 0.42671
237.00 0.40855
237.50 0.39188
238.00 0.36298
238.50 0.33786
239.00 0.31500
239.50 0.29202
240.00 0.26788
240.50 0.24200
241.00 0.21600
241.50 0.19019
242.00 0.17095
242.50 0.15389
243.00 0.13656
243.50 0.11874
244.00 0.10090
244.50 0.08887
245.00 0.07903
245.50 0.06917
246.00 0.05949
246.50 0.05069
247.00 0.04521
247.50 0.03992
248.00 0.03462
248.50 0.02932
249.00 0.02519
249.50 0.02199
250.00 0.01930
250.50 0.01687
251.00 0.01444
251.50 0.01256
252.00 0.01112
252.50 0.00968
253.00 0.00834
253.50 0.00714
254.00 0.00613
254.50 0.00549
255.00 0.00485
255.50 0.00422
256.00 0.00359
256.50 0.00309
257.00 0.00276
257.50 0.00243
258.00 0.00209
258.50 0.00179
259.00 0.00161
259.50 0.00144
260.00 0.00126
260.50 0.00109
261.00 0.00095
261.50 0.00085
262.00 0.00075
262.50 0.00065
263.00 0.00058
263.50 0.00052
264.00 0.00046
264.50 0.00040
265.00 0.00035
265.50 0.00032
266.00 0.00028
266.50 0.00025
267.00 0.00022
267.50 0.00020
268.00 0.00018
268.50 0.00016
269.00 0.00015
269.50 0.00014
270.00 0.00013
270.00 0.00013
270.50 0.00014
271.00 0.00015
271.50 0.00016
272.00 0.00018
272.50 0.00020
273.00 0.00022
273.50 0.00025
274.00 0.00028
274.50 0.00032
275.00 0.00035
275.50 0.00040
276.00 0.00046
276.50 0.00052
277.00 0.00058
277.50 0.00065
278.00 0.00075
278.50 0.00085
279.00 0.00095
279.50 0.00109
280.00 0.00126
280.50 0.00144
281.00 0.00161
281.50 0.00179
282.00 0.00209
282.50 0.00243
283.00 0.00276
283.50 0.00309
284.00 0.00359
284.50 0.00422
285.00 0.00485
285.50 0.00549
286.00 0.00613
286.50 0.00714
287.00 0.00834
287.50 0.00968
288.00 0.01112
288.50 0.01256
289.00 0.01444
289.50 0.01687
290.00 0.01930
290.50 0.02199
291.00 0.02519
291.50 0.02932
292.00 0.03462
292.50 0.03992
293.00 0.04521
293.50 0.05069
294.00 0.05949
294.50 0.06917
295.00 0.07903
295.50 0.08887
296.00 0.10090
296.50 0.11874
297.00 0.13656
297.50 0.15389
298.00 0.17095
298.50 0.19019
299.00 0.21600
299.50 0.24200
300.00 0.26788
300.50 0.29202
301.00 0.31500
301.50 0.33786
302.00 0.36298
302.50 0.39188
303.00 0.40855
303.50 0.42671
304.00 0.44596
304.50 0.46504
305.00 0.48396
305.50 0.50270
306.00 0.51667
306.50 0.52625
307.00 0.53931
307.50 0.55312
308.00 0.56685
308.50 0.58049
309.00 0.59177
309.50 0.59893
310.00 0.60953
310.50 0.62143
311.00 0.63406
311.50 0.64636
312.00 0.65808
312.50 0.67052
313.00 0.68499
313.50 0.69869
314.00 0.71353
314.50 0.72945
315.00 0.74537
315.50 0.76255
316.00 0.77980
316.50 0.79744
317.00 0.81563
317.50 0.83391
318.00 0.85307
318.50 0.87240
319.00 0.89177
319.50 0.91144
320.00 0.93177
320.50 0.95224
321.00 0.97276
321.50 0.99332
322.00 1.01327
322.50 1.03321
323.00 1.05407
323.50 1.07522
324.00 1.09487
324.50 1.11169
325.00 1.12907
325.50 1.14721
326.00 1.16537
326.50 1.18356
327.00 1.20007
327.50 1.21407
328.00 1.22814
328.50 1.24404
329.00 1.25999
329.50 1.27598
330.00 1.29203
330.50 1.30713
331.00 1.32185
331.50 1.33773
332.00 1.35323
332.50 1.36843
333.00 1.38367
333.50 1.39896
334.00 1.41393
334.50 1.42866
335.00 1.44342
335.50 1.45531
336.00 1.46605
336.50 1.47680
337.00 1.48511
337.50 1.49110
338.00 1.49713
338.50 1.50214
339.00 1.50695
339.50 1.51181
340.00 1.51649
340.50 1.51807
341.00 1.51952
341.50 1.52062
342.00 1.52295
342.50 1.52590
343.00 1.52893
343.50 1.53206
344.00 1.53417
344.50 1.53635
345.00 1.53843
345.50 1.54016
346.00 1.54198
346.50 1.54388
347.00 1.54530
347.50 1.54670
348.00 1.54769
348.50 1.54719
349.00 1.54677
349.50 1.54644
350.00 1.54560
350.50 1.54387
351.00 1.54144
351.50 1.53900
352.00 1.53798
352.50 1.53708
353.00 1.53630
353.50 1.53555
354.00 1.53461
354.50 1.53379
355.00 1.53320
355.50 1.53296
356.00 1.53285
356.50 1.53295
357.00 1.53319
357.50 1.53354
358.00 1.53402
358.50 1.53444
359.00 1.53487
359.50 1.53541
360.00 1.53607
