phi[deg] B[T]
0.00 1.60434
0.50 1.60343
1.00 1.60264
1.50 1.60196
2.00 1.60124
2.50 1.60030
3.00 1.59948
3.50 1.59879
4.00 1.59822
4.50 1.59785
5.00 1.59760
5.50 1.59766
6.00 1.59793
6.50 1.59833
7.00 1.59851
7.50 1.59871
8.00 1.59904
8.50 1.59948
9.00 1.60147
9.50 1.60338
10.00 1.60439
10.50 1.60446
11.00 1.60401
11.50 1.60365
12.00 1.60338
12.50 1.60122
13.00 1.59853
13.50 1.59588
14.00 1.59303
14.50 1.59027
15.00 1.58762
15.50 1.58437
16.00 1.58095
16.50 1.57761
17.00 1.57382
17.50 1.57013
18.00 1.56655
18.50 1.56349
19.00 1.56146
19.50 1.55934
20.00 1.55723
20.50 1.55246
21.00 1.54757
21.50 1.54273
22.00 1.53777
22.50 1.53198
23.00 1.52625
23.50 1.51863
24.00 1.50901
24.50 1.49943
25.00 1.48891
25.50 1.47600
26.00 1.46315
26.50 1.45022
27.00 1.43717
27.50 1.42419
28.00 1.41127
28.50 1.39823
29.00 1.38502
29.50 1.37322
30.00 1.36091
30.50 1.34736
31.00 1.33388
31.50 1.32045
32.00 1.30707
32.50 1.29574
33.00 1.28446
33.50 1.27030
34.00 1.25418
34.50 1.23810
35.00 1.22204
35.50 1.20669
36.00 1.19185
36.50 1.17405
37.00 1.15468
37.50 1.13556
38.00 1.11716
38.50 1.09878
39.00 1.08015
39.50 1.06157
40.00 1.04302
40.50 1.02416
41.00 1.00589
41.50 0.98826
42.00 0.97066
42.50 0.95256
43.00 0.93548
43.50 0.91852
44.00 0.90099
44.50 0.88308
45.00 0.86532
45.50 0.84729
46.00 0.82917
46.50 0.81063
47.00 0.79165
47.50 0.77146
48.00 0.75137
48.50 0.73144
49.00 0.71023
49.50 0.68825
50.00 0.66670
50.50 0.64597
51.00 0.62619
51.50 0.60525
52.00 0.58344
52.50 0.56155
53.00 0.53958
53.50 0.51816
54.00 0.49988
54.50 0.48040
55.00 0.45812
55.50 0.43571
56.00 0.41318
56.50 0.39052
57.00 0.36896
57.50 0.34950
58.00 0.32292
58.50 0.29907
59.00 0.27686
59.50 0.25456
60.00 0.23206
60.50 0.20933
61.00 0.18651
61.50 0.16385
62.00 0.14647
62.50 0.13178
63.00 0.11689
63.50 0.10163
64.00 0.08636
64.50 0.07606
65.00 0.06764
65.50 0.05920
66.00 0.05088
66.50 0.04330
67.00 0.03861
67.50 0.03409
68.00 0.02957
68.50 0.02505
69.00 0.02151
69.50 0.01877
70.00 0.01647
70.50 0.01440
71.00 0.01233
71.50 0.01072
72.00 0.00949
72.50 0.00826
73.00 0.00712
73.50 0.00609
74.00 0.00523
74.50 0.00468
75.00 0.00414
75.50 0.00360
76.00 0.00307
76.50 0.00265
77.00 0.00236
77.50 0.00208
78.00 0.00180
78.50 0.00154
79.00 0.00139
79.50 0.00124
80.00 0.00110
80.50 0.00095
81.00 0.00083
81.50 0.00075
82.00 0.00066
82.50 0.00058
83.00 0.00051
83.50 0.00046
84.00 0.00041
84.50 0.00036
85.00 0.00032
85.50 0.00028
86.00 0.00025
86.50 0.00021
87.00 0.00018
87.50 0.00016
88.00 0.00013
88.50 0.00011
89.00 0.00010
89.50 0.00008
90.00 0.00007
90.00 0.00007
90.50 0.00008
91.00 0.00010
91.50 0.00011
92.00 0.00013
92.50 0.00016
93.00 0.00018
93.50 0.00021
94.00 0.00025
94.50 0.00028
95.00 0.00032
95.50 0.00036
96.00 0.00041
96.50 0.00046
97.00 0.00051
97.50 0.00058
98.00 0.00066
98.50 0.00075
99.00 0.00083
99.50 0.00095
100.00 0.00110
100.50 0.00124
101.00 0.00139
101.50 0.00154
102.00 0.00180
102.50 0.00208
103.00 0.00236
103.50 0.00265
104.00 0.00307
104.50 0.00360
105.00 0.00414
105.50 0.00468
106.00 0.00523
106.50 0.00609
107.00 0.00712
107.50 0.00826
108.00 0.00949
108.50 0.01072
109.00 0.01233
109.50 0.01440
110.00 0.01647
110.50 0.01877
111.00 0.02151
111.50 0.02505
112.00 0.02957
112.50 0.03409
113.00 0.03861
113.50 0.04330
114.00 0.05088
114.50 0.05920
115.00 0.06764
115.50 0.07606
116.00 0.08636
116.50 0.10163
117.00 0.11689
117.50 0.13178
118.00 0.14647
118.50 0.16385
119.00 0.18651
119.50 0.20933
120.00 0.23206
120.50 0.25456
121.00 0.27686
121.50 0.29907
122.00 0.32292
122.50 0.34950
123.00 0.36896
123.50 0.39052
124.00 0.41318
124.50 0.43571
125.00 0.45812
125.50 0.48040
126.00 0.49988
126.50 0.51816
127.00 0.53958
127.50 0.56155
128.00 0.58344
128.50 0.60525
129.00 0.62619
129.50 0.64597
130.00 0.66670
130.50 0.68825
131.00 0.71023
131.50 0.73144
132.00 0.75137
132.50 0.77146
133.00 0.79165
133.50 0.81063
134.00 0.82917
134.50 0.84729
135.00 0.86532
135.50 0.88308
136.00 0.90099
136.50 0.91852
137.00 0.93548
137.50 0.95256
138.00 0.97066
138.50 0.98826
139.00 1.00589
139.50 1.02416
140.00 1.04302
140.50 1.06157
141.00 1.08015
141.50 1.09878
142.00 1.11716
142.50 1.13556
143.00 1.15468
143.50 1.17405
144.00 1.19185
144.50 1.20669
145.00 1.22204
145.50 1.23810
146.00 1.25418
146.50 1.27030
147.00 1.28446
147.50 1.29574
148.00 1.30707
148.50 1.32045
149.00 1.33388
149.50 1.34736
150.00 1.36091
150.50 1.37322
151.00 1.38502
151.50 1.39823
152.00 1.41127
152.50 1.42419
153.00 1.43717
153.50 1.45022
154.00 1.46315
154.50 1.47600
155.00 1.48891
155.50 1.49943
156.00 1.50901
156.50 1.51863
157.00 1.52625
157.50 1.53198
158.00 1.53777
158.50 1.54273
159.00 1.54757
159.50 1.55246
160.00 1.55723
160.50 1.55934
161.00 1.56146
161.50 1.56349
162.00 1.56655
162.50 1.57013
163.00 1.57382
163.50 1.57761
164.00 1.58095
164.50 1.58437
165.00 1.58762
165.50 1.59027
166.00 1.59303
166.50 1.59588
167.00 1.59853
167.50 1.60122
168.00 1.60338
168.50 1.60365
169.00 1.60401
169.50 1.60446
170.00 1.60439
170.50 1.60338
171.00 1.60147
171.50 1.59948
172.00 1.59904
172.50 1.59871
173.00 1.59851
173.50 1.59833
174.00 1.59793
174.50 1.59766
175.00 1.59760
175.50 1.59785
176.00 1.59822
176.50 1.59879
177.00 1.59948
177.50 1.60030
178.00 1.60124
178.50 1.60196
179.00 1.60264
179.50 1.60343
180.00 1.60434
180.00 1.60434
180.50 1.60343
181.00 1.60264
181.50 1.60196
182.00 1.60124
182.50 1.60030
183.00 1.59948
183.50 1.59879
184.00 1.59822
184.50 1.59785
185.00 1.59760
185.50 1.59766
186.00 1.59793
186.50 1.59833
187.00 1.59851
187.50 1.59871
188.00 1.59904
188.50 1.59948
189.00 1.60147
189.50 1.60338
190.00 1.60439
190.50 1.60446
191.00 1.60401
191.50 1.60365
192.00 1.60338
192.50 1.60122
193.00 1.59853
193.50 1.59588
194.00 1.59303
194.50 1.59027
195.00 1.58762
195.50 1.58437
196.00 1.58095
196.50 1.57761
197.00 1.57382
197.50 1.57013
198.00 1.56655
198.50 1.56349
199.00 1.56146
199.50 1.55934
200.00 1.55723
200.50 1.55246
201.00 1.54757
201.50 1.54273
202.00 1.53777
202.50 1.53198
203.00 1.52625
203.50 1.51863
204.00 1.50901
204.50 1.49943
205.00 1.48891
205.50 1.47600
206.00 1.46315
206.50 1.45022
207.00 1.43717
207.50 1.42419
208.00 1.41127
208.50 1.39823
209.00 1.38502
209.50 1.37322
210.00 1.36091
210.50 1.34736
211.00 1.33388
211.50 1.32045
212.00 1.30707
212.50 1.29574
213.00 1.28446
213.50 1.27030
214.00 1.25418
214.50 1.23810
215.00 1.22204
215.50 1.20669
216.00 1.19185
216.50 1.17405
217.00 1.15468
217.50 1.13556
218.00 1.11716
218.50 1.09878
219.00 1.08015
219.50 1.06157
220.00 1.04302
220.50 1.02416
221.00 1.00589
221.50 0.98826
222.00 0.97066
222.50 0.95256
223.00 0.93548
223.50 0.91852
224.00 0.90099
224.50 0.88308
225.00 0.86532
225.50 0.84729
226.00 0.82917
226.50 0.81063
227.00 0.79165
227.50 0.77146
228.00 0.75137
228.50 0.73144
229.00 0.71023
229.50 0.68825
230.00 0.66670
230.50 0.64597
231.00 0.62619
231.50 0.60525
232.00 0.58344
232.50 0.56155
233.00 0.53958
233.50 0.51816
234.00 0.49988
234.50 0.48040
235.00 0.45812
235.50 0.43571
236.00 0.41318
236.50 0.39052
237.00 0.36896
237.50 0.34950
238.00 0.32292
238.50 0.29907
239.00 0.27686
239.50 0.25456
240.00 0.23206
240.50 0.20933
241.00 0.18651
241.50 0.16385
242.00 0.14647
242.50 0.13178
243.00 0.11689
243.50 0.10163
244.00 0.08636
244.50 0.07606
245.00 0.06764
245.50 0.05920
246.00 0.05088
246.50 0.04330
247.00 0.03861
247.50 0.03409
248.00 0.02957
248.50 0.02505
249.00 0.02151
249.50 0.01877
250.00 0.01647
250.50 0.01440
251.00 0.01233
251.50 0.01072
252.00 0.00949
252.50 0.00826
253.00 0.00712
253.50 0.00609
254.00 0.00523
254.50 0.00468
255.00 0.00414
255.50 0.00360
256.00 0.00307
256.50 0.00265
257.00 0.00236
257.50 0.00208
258.00 0.00180
258.50 0.00154
259.00 0.00139
259.50 0.00124
260.00 0.00110
260.50 0.00095
261.00 0.00083
261.50 0.00075
262.00 0.00066
262.50 0.00058
263.00 0.00051
263.50 0.00046
264.00 0.00041
264.50 0.00036
265.00 0.00032
265.50 0.00028
266.00 0.00025
266.50 0.00021
267.00 0.00018
267.50 0.00016
268.00 0.00013
268.50 0.00011
269.00 0.00010
269.50 0.00008
270.00 0.00007
270.00 0.00007
270.50 0.00008
271.00 0.00010
271.50 0.00011
272.00 0.00013
272.50 0.00016
273.00 0.00018
273.50 0.00021
274.00 0.00025
274.50 0.00028
275.00 0.00032
275.50 0.00036
276.00 0.00041
276.50 0.00046
277.00 0.00051
277.50 0.00058
278.00 0.00066
278.50 0.00075
279.00 0.00083
279.50 0.00095
280.00 0.00110
280.50 0.00124
281.00 0.00139
281.50 0.00154
282.00 0.00180
282.50 0.00208
283.00 0.00236
283.50 0.00265
284.00 0.00307
284.50 0.00360
285.00 0.00414
285.50 0.00468
286.00 0.00523
286.50 0.00609
287.00 0.00712
287.50 0.00826
288.00 0.00949
288.50 0.01072
289.00 0.01233
289.50 0.01440
290.00 0.01647
290.50 0.01877
291.00 0.02151
291.50 0.02505
292.00 0.02957
292.50 0.03409
293.00 0.03861
293.50 0.04330
294.00 0.05088
294.50 0.05920
295.00 0.06764
295.50 0.07606
296.00 0.08636
296.50 0.10163
297.00 0.11689
297.50 0.13178
298.00 0.14647
298.50 0.16385
299.00 0.18651
299.50 0.20933
300.00 0.23206
300.50 0.25456
301.00 0.27686
301.50 0.29907
302.00 0.32292
302.50 0.34950
303.00 0.36896
303.50 0.39052
304.00 0.41318
304.50 0.43571
305.00 0.45812
305.50 0.48040
306.00 0.49988
306.50 0.51816
307.00 0.53958
307.50 0.56155
308.00 0.58344
308.50 0.60525
309.00 0.62619
309.50 0.64597
310.00 0.66670
310.50 0.68825
311.00 0.71023
311.50 0.73144
312.00 0.75137
312.50 0.77146
313.00 0.79165
313.50 0.81063
314.00 0.82917
314.50 0.84729
315.00 0.86532
315.50 0.88308
316.00 0.90099
316.50 0.91852
317.00 0.93548
317.50 0.95256
318.00 0.97066
318.50 0.98826
319.00 1.00589
319.50 1.02416
320.00 1.04302
320.50 1.06157
321.00 1.08015
321.50 1.09878
322.00 1.11716
322.50 1.13556
323.00 1.15468
323.50 1.17405
324.00 1.19185
324.50 1.20669
325.00 1.22204
325.50 1.23810
326.00 1.25418
326.50 1.27030
327.00 1.28446
327.50 1.29574
328.00 1.30707
328.50 1.32045
329.00 1.33388
329.50 1.34736
330.00 1.36091
330.50 1.37322
331.00 1.38502
331.50 1.39823
332.00 1.41127
332.50 1.42419
333.00 1.43717
333.50 1.45022
334.00 1.46315
334.50 1.47600
335.00 1.48891
335.50 1.49943
336.00 1.50901
336.50 1.51863
337.00 1.52625
337.50 1.53198
338.00 1.53777
338.50 1.54273
339.00 1.54757
339.50 1.55246
340.00 1.55723
340.50 1.55934
341.00 1.56146
341.50 1.56349
342.00 1.56655
342.50 1.57013
343.00 1.57382
343.50 1.57761
344.00 1.58095
344.50 1.58437
345.00 1.58762
345.50 1.59027
346.00 1.59303
346.50 1.59588
347.00 1.59853
347.50 1.60122
348.00 1.60338
348.50 1.60365
349.00 1.60401
349.50 1.60446
350.00 1.60439
350.50 1.60338
351.00 1.60147
351.50 1.59948
352.00 1.59904
352.50 1.59871
353.00 1.59851
353.50 1.59833
354.00 1.59793
354.50 1.59766
355.00 1.59760
355.50 1.59785
356.00 1.59822
356.50 1.59879
357.00 1.59948
357.50 1.60030
358.00 1.60124
358.50 1.60196
359.00 1.60264
359.50 1.60343
360.00 1.60434
