phi[deg] B[T]
0.00 1.47181
0.50 1.47124
1.00 1.47078
1.50 1.47044
2.00 1.47019
2.50 1.46987
3.00 1.46968
3.50 1.46961
4.00 1.46972
4.50 1.47018
5.00 1.47075
5.50 1.47175
6.00 1.47299
6.50 1.47434
7.00 1.47559
7.50 1.47694
8.00 1.47841
8.50 1.48000
9.00 1.48282
9.50 1.48593
10.00 1.48850
10.50 1.48968
11.00 1.49061
11.50 1.49161
12.00 1.49270
12.50 1.49213
13.00 1.49098
13.50 1.48989
14.00 1.48846
14.50 1.48712
15.00 1.48587
15.50 1.48408
16.00 1.48226
16.50 1.48045
17.00 1.47793
17.50 1.47550
18.00 1.47316
18.50 1.47131
19.00 1.47071
19.50 1.47006
20.00 1.46916
20.50 1.46493
21.00 1.46073
21.50 1.45656
22.00 1.45227
22.50 1.44683
23.00 1.44144
23.50 1.43359
24.00 1.42308
24.50 1.41258
25.00 1.40204
25.50 1.38690
26.00 1.37181
26.50 1.35675
27.00 1.34172
27.50 1.32674
28.00 1.31181
28.50 1.29644
29.00 1.28068
29.50 1.26635
30.00 1.25150
30.50 1.23588
31.00 1.22032
31.50 1.20481
32.00 1.18972
32.50 1.17618
33.00 1.16268
33.50 1.14571
34.00 1.12805
34.50 1.11041
35.00 1.09279
35.50 1.07656
36.00 1.06028
36.50 1.03951
37.00 1.01880
37.50 0.99922
38.00 0.97951
38.50 0.95919
39.00 0.93891
39.50 0.91862
40.00 0.89837
40.50 0.87842
41.00 0.85916
41.50 0.83996
42.00 0.82130
42.50 0.80268
43.00 0.78455
43.50 0.76688
44.00 0.74961
44.50 0.73286
45.00 0.71618
45.50 0.70084
46.00 0.68551
46.50 0.67135
47.00 0.65783
47.50 0.64454
48.00 0.63236
48.50 0.62299
49.00 0.61263
49.50 0.60087
50.00 0.58914
50.50 0.58012
51.00 0.57334
51.50 0.56399
52.00 0.55106
52.50 0.53807
53.00 0.52500
53.50 0.51419
54.00 0.50556
54.50 0.49143
55.00 0.47337
55.50 0.45514
56.00 0.43674
56.50 0.41816
57.00 0.40097
57.50 0.38385
58.00 0.35500
58.50 0.33077
59.00 0.30806
59.50 0.28521
60.00 0.26187
60.50 0.23622
61.00 0.21045
61.50 0.18456
62.00 0.16117
62.50 0.14186
63.00 0.12770
63.50 0.11344
64.00 0.09905
64.50 0.08464
65.00 0.07020
65.50 0.06217
66.00 0.05502
66.50 0.04786
67.00 0.04088
67.50 0.03395
68.00 0.03004
68.50 0.02653
69.00 0.02312
69.50 0.01970
70.00 0.01629
70.50 0.01457
71.00 0.01290
71.50 0.01123
72.00 0.00956
72.50 0.00799
73.00 0.00699
73.50 0.00622
74.00 0.00548
74.50 0.00474
75.00 0.00399
75.50 0.00341
76.00 0.00302
76.50 0.00263
77.00 0.00226
77.50 0.00193
78.00 0.00167
78.50 0.00150
79.00 0.00133
79.50 0.00117
80.00 0.00101
80.50 0.00085
81.00 0.00076
81.50 0.00067
82.00 0.00059
82.50 0.00053
83.00 0.00047
83.50 0.00041
84.00 0.00037
84.50 0.00032
85.00 0.00029
85.50 0.00026
86.00 0.00022
86.50 0.00019
87.00 0.00017
87.50 0.00014
88.00 0.00012
88.50 0.00010
89.00 0.00009
89.50 0.00008
90.00 0.00007
90.00 0.00007
90.50 0.00008
91.00 0.00009
91.50 0.00010
92.00 0.00012
92.50 0.00014
93.00 0.00017
93.50 0.00019
94.00 0.00022
94.50 0.00026
95.00 0.00029
95.50 0.00032
96.00 0.00037
96.50 0.00041
97.00 0.00047
97.50 0.00053
98.00 0.00059
98.50 0.00067
99.00 0.00076
99.50 0.00085
100.00 0.00101
100.50 0.00117
101.00 0.00133
101.50 0.00150
102.00 0.00167
102.50 0.00193
103.00 0.00226
103.50 0.00263
104.00 0.00302
104.50 0.00341
105.00 0.00399
105.50 0.00474
106.00 0.00548
106.50 0.00622
107.00 0.00699
107.50 0.00799
108.00 0.00956
108.50 0.01123
109.00 0.01290
109.50 0.01457
110.00 0.01629
110.50 0.01970
111.00 0.02312
111.50 0.02653
112.00 0.03004
112.50 0.03395
113.00 0.04088
113.50 0.04786
114.00 0.05502
114.50 0.06217
115.00 0.07020
115.50 0.08464
116.00 0.09905
116.50 0.11344
117.00 0.12770
117.50 0.14186
118.00 0.16117
118.50 0.18456
119.00 0.21045
119.50 0.23622
120.00 0.26187
120.50 0.28521
121.00 0.30806
121.50 0.33077
122.00 0.35500
122.50 0.38385
123.00 0.40097
123.50 0.41816
124.00 0.43674
124.50 0.45514
125.00 0.47337
125.50 0.49143
126.00 0.50556
126.50 0.51419
127.00 0.52500
127.50 0.53807
128.00 0.55106
128.50 0.56399
129.00 0.57334
129.50 0.58012
130.00 0.58914
130.50 0.60087
131.00 0.61263
131.50 0.62299
132.00 0.63236
132.50 0.64454
133.00 0.65783
133.50 0.67135
134.00 0.68551
134.50 0.70084
135.00 0.71618
135.50 0.73286
136.00 0.74961
136.50 0.76688
137.00 0.78455
137.50 0.80268
138.00 0.82130
138.50 0.83996
139.00 0.85916
139.50 0.87842
140.00 0.89837
140.50 0.91862
141.00 0.93891
141.50 0.95919
142.00 0.97951
142.50 0.99922
143.00 1.01880
143.50 1.03951
144.00 1.06028
144.50 1.07656
145.00 1.09279
145.50 1.11041
146.00 1.12805
146.50 1.14571
147.00 1.16268
147.50 1.17618
148.00 1.18972
148.50 1.20481
149.00 1.22032
149.50 1.23588
150.00 1.25150
150.50 1.26635
151.00 1.28068
151.50 1.29644
152.00 1.31181
152.50 1.32674
153.00 1.34172
153.50 1.35675
154.00 1.37181
154.50 1.38690
155.00 1.40204
155.50 1.41258
156.00 1.42308
156.50 1.43359
157.00 1.44144
157.50 1.44683
158.00 1.45227
158.50 1.45656
159.00 1.46073
159.50 1.46493
160.00 1.46916
160.50 1.47006
161.00 1.47071
161.50 1.47131
162.00 1.47316
162.50 1.47550
163.00 1.47793
163.50 1.48045
164.00 1.48226
164.50 1.48408
165.00 1.48587
165.50 1.48712
166.00 1.48846
166.50 1.48989
167.00 1.49098
167.50 1.49213
168.00 1.49270
168.50 1.49161
169.00 1.49061
169.50 1.48968
170.00 1.48850
170.50 1.48593
171.00 1.48282
171.50 1.48000
172.00 1.47841
172.50 1.47694
173.00 1.47559
173.50 1.47434
174.00 1.47299
174.50 1.47175
175.00 1.47075
175.50 1.47018
176.00 1.46972
176.50 1.46961
177.00 1.46968
177.50 1.46987
178.00 1.47019
178.50 1.47044
179.00 1.47078
179.50 1.47124
180.00 1.47181
180.00 1.47181
180.50 1.47124
181.00 1.47078
181.50 1.47044
182.00 1.47019
182.50 1.46987
183.00 1.46968
183.50 1.46961
184.00 1.46972
184.50 1.47018
185.00 1.47075
185.50 1.47175
186.00 1.47299
186.50 1.47434
187.00 1.47559
187.50 1.47694
188.00 1.47841
188.50 1.48000
189.00 1.48282
189.50 1.48593
190.00 1.48850
190.50 1.48968
191.00 1.49061
191.50 1.49161
192.00 1.49270
192.50 1.49213
193.00 1.49098
193.50 1.48989
194.00 1.48846
194.50 1.48712
195.00 1.48587
195.50 1.48408
196.00 1.48226
196.50 1.48045
197.00 1.47793
197.50 1.47550
198.00 1.47316
198.50 1.47131
199.00 1.47071
199.50 1.47006
200.00 1.46916
200.50 1.46493
201.00 1.46073
201.50 1.45656
202.00 1.45227
202.50 1.44683
203.00 1.44144
203.50 1.43359
204.00 1.42308
204.50 1.41258
205.00 1.40204
205.50 1.38690
206.00 1.37181
206.50 1.35675
207.00 1.34172
207.50 1.32674
208.00 1.31181
208.50 1.29644
209.00 1.28068
209.50 1.26635
210.00 1.25150
210.50 1.23588
211.00 1.22032
211.50 1.20481
212.00 1.18972
212.50 1.17618
213.00 1.16268
213.50 1.14571
214.00 1.12805
214.50 1.11041
215.00 1.09279
215.50 1.07656
216.00 1.06028
216.50 1.03951
217.00 1.01880
217.50 0.99922
218.00 0.97951
218.50 0.95919
219.00 0.93891
219.50 0.91862
220.00 0.89837
220.50 0.87842
221.00 0.85916
221.50 0.83996
222.00 0.82130
222.50 0.80268
223.00 0.78455
223.50 0.76688
224.00 0.74961
224.50 0.73286
225.00 0.71618
225.50 0.70084
226.00 0.68551
226.50 0.67135
227.00 0.65783
227.50 0.64454
228.00 0.63236
228.50 0.62299
229.00 0.61263
229.50 0.60087
230.00 0.58914
230.50 0.58012
231.00 0.57334
231.50 0.56399
232.00 0.55106
232.50 0.53807
233.00 0.52500
233.50 0.51419
234.00 0.50556
234.50 0.49143
235.00 0.47337
235.50 0.45514
236.00 0.43674
236.50 0.41816
237.00 0.40097
237.50 0.38385
238.00 0.35500
238.50 0.33077
239.00 0.30806
239.50 0.28521
240.00 0.26187
240.50 0.23622
241.00 0.21045
241.50 0.18456
242.00 0.16117
242.50 0.14186
243.00 0.12770
243.50 0.11344
244.00 0.09905
244.50 0.08464
245.00 0.07020
245.50 0.06217
246.00 0.05502
246.50 0.04786
247.00 0.04088
247.50 0.03395
248.00 0.03004
248.50 0.02653
249.00 0.02312
249.50 0.01970
250.00 0.01629
250.50 0.01457
251.00 0.01290
251.50 0.01123
252.00 0.00956
252.50 0.00799
253.00 0.00699
253.50 0.00622
254.00 0.00548
254.50 0.00474
255.00 0.00399
255.50 0.00341
256.00 0.00302
256.50 0.00263
257.00 0.00226
257.50 0.00193
258.00 0.00167
258.50 0.00150
259.00 0.00133
259.50 0.00117
260.00 0.00101
260.50 0.00085
261.00 0.00076
261.50 0.00067
262.00 0.00059
262.50 0.00053
263.00 0.00047
263.50 0.00041
264.00 0.00037
264.50 0.00032
265.00 0.00029
265.50 0.00026
266.00 0.00022
266.50 0.00019
267.00 0.00017
267.50 0.00014
268.00 0.00012
268.50 0.00010
269.00 0.00009
269.50 0.00008
270.00 0.00007
270.00 0.00007
270.50 0.00008
271.00 0.00009
271.50 0.00010
272.00 0.00012
272.50 0.00014
273.00 0.00017
273.50 0.00019
274.00 0.00022
274.50 0.00026
275.00 0.00029
275.50 0.00032
276.00 0.00037
276.50 0.00041
277.00 0.00047
277.50 0.00053
278.00 0.00059
278.50 0.00067
279.00 0.00076
279.50 0.00085
280.00 0.00101
280.50 0.00117
281.00 0.00133
281.50 0.00150
282.00 0.00167
282.50 0.00193
283.00 0.00226
283.50 0.00263
284.00 0.00302
284.50 0.00341
285.00 0.00399
285.50 0.00474
286.00 0.00548
286.50 0.00622
287.00 0.00699
287.50 0.00799
288.00 0.00956
288.50 0.01123
289.00 0.01290
289.50 0.01457
290.00 0.01629
290.50 0.01970
291.00 0.02312
291.50 0.02653
292.00 0.03004
292.50 0.03395
293.00 0.04088
293.50 0.04786
294.00 0.05502
294.50 0.06217
295.00 0.07020
295.50 0.08464
296.00 0.09905
296.50 0.11344
297.00 0.12770
297.50 0.14186
298.00 0.16117
298.50 0.18456
299.00 0.21045
299.50 0.23622
300.00 0.26187
300.50 0.28521
301.00 0.30806
301.50 0.33077
302.00 0.35500
302.50 0.38385
303.00 0.40097
303.50 0.41816
304.00 0.43674
304.50 0.45514
305.00 0.47337
305.50 0.49143
306.00 0.50556
306.50 0.51419
307.00 0.52500
307.50 0.53807
308.00 0.55106
308.50 0.56399
309.00 0.57334
309.50 0.58012
310.00 0.58914
310.50 0.60087
311.00 0.61263
311.50 0.62299
312.00 0.63236
312.50 0.64454
313.00 0.65783
313.50 0.67135
314.00 0.68551
314.50 0.70084
315.00 0.71618
315.50 0.73286
316.00 0.74961
316.50 0.76688
317.00 0.78455
317.50 0.80268
318.00 0.82130
318.50 0.83996
319.00 0.85916
319.50 0.87842
320.00 0.89837
320.50 0.91862
321.00 0.93891
321.50 0.95919
322.00 0.97951
322.50 0.99922
323.00 1.01880
323.50 1.03951
324.00 1.06028
324.50 1.07656
325.00 1.09279
325.50 1.11041
326.00 1.12805
326.50 1.14571
327.00 1.16268
327.50 1.17618
328.00 1.18972
328.50 1.20481
329.00 1.22032
329.50 1.23588
330.00 1.25150
330.50 1.26635
331.00 1.28068
331.50 1.29644
332.00 1.31181
332.50 1.32674
333.00 1.34172
333.50 1.35675
334.00 1.37181
334.50 1.38690
335.00 1.40204
335.50 1.41258
336.00 1.42308
336.50 1.43359
337.00 1.44144
337.50 1.44683
338.00 1.45227
338.50 1.45656
339.00 1.46073
339.50 1.46493
340.00 1.46916
340.50 1.47006
341.00 1.47071
341.50 1.47131
342.00 1.47316
342.50 1.47550
343.00 1.47793
343.50 1.48045
344.00 1.48226
344.50 1.48408
345.00 1.48587
345.50 1.48712
346.00 1.48846
346.50 1.48989
347.00 1.49098
347.50 1.49213
348.00 1.49270
348.50 1.49161
349.00 1.49061
349.50 1.48968
350.00 1.48850
350.50 1.48593
351.00 1.48282
351.50 1.48000
352.00 1.47841
352.50 1.47694
353.00 1.47559
353.50 1.47434
354.00 1.47299
354.50 1.47175
355.00 1.47075
355.50 1.47018
356.00 1.46972
356.50 1.46961
357.00 1.46968
357.50 1.46987
358.00 1.47019
358.50 1.47044
359.00 1.47078
359.50 1.47124
360.00 1.47181
