phi[deg] B[T]
0.00 1.58723
0.50 1.58688
1.00 1.58672
1.50 1.58700
2.00 1.58739
2.50 1.58757
3.00 1.58774
3.50 1.58798
4.00 1.58834
4.50 1.58891
5.00 1.58967
5.50 1.59053
6.00 1.59078
6.50 1.59078
7.00 1.59090
7.50 1.59116
8.00 1.59222
8.50 1.59338
9.00 1.59464
9.50 1.59404
10.00 1.59328
10.50 1.59261
11.00 1.59205
11.50 1.59158
12.00 1.59128
12.50 1.59203
13.00 1.59281
13.50 1.59275
14.00 1.59251
14.50 1.59025
15.00 1.58807
15.50 1.58595
16.00 1.58391
16.50 1.58194
17.00 1.58004
17.50 1.57953
18.00 1.57775
18.50 1.57439
19.00 1.56890
19.50 1.56346
20.00 1.55805
20.50 1.55269
21.00 1.54738
21.50 1.54211
22.00 1.53709
22.50 1.53175
23.00 1.52539
23.50 1.51727
24.00 1.50765
24.50 1.49806
25.00 1.48848
25.50 1.47892
26.00 1.46939
26.50 1.45987
27.00 1.45254
27.50 1.44494
28.00 1.43482
28.50 1.42137
29.00 1.40789
29.50 1.39437
30.00 1.38081
30.50 1.36722
31.00 1.35359
31.50 1.34178
32.00 1.32838
32.50 1.31148
33.00 1.29332
33.50 1.27508
34.00 1.25673
34.50 1.24104
35.00 1.22429
35.50 1.20203
36.00 1.17962
36.50 1.15706
37.00 1.13612
37.50 1.11672
38.00 1.09277
38.50 1.06428
39.00 1.03562
39.50 1.00591
40.00 0.97573
40.50 0.94518
41.00 0.91439
41.50 0.88342
42.00 0.84804
42.50 0.81275
43.00 0.77978
43.50 0.74492
44.00 0.70671
44.50 0.66829
45.00 0.63311
45.50 0.59614
46.00 0.56001
46.50 0.52372
47.00 0.48669
47.50 0.44885
48.00 0.41341
48.50 0.38269
49.00 0.35205
49.50 0.32142
50.00 0.29072
50.50 0.26644
51.00 0.24443
51.50 0.22245
52.00 0.20062
52.50 0.17876
53.00 0.16163
53.50 0.14826
54.00 0.13488
54.50 0.12150
55.00 0.10811
55.50 0.09561
56.00 0.08793
56.50 0.08025
57.00 0.07257
57.50 0.06490
58.00 0.05722
58.50 0.05161
59.00 0.04717
59.50 0.04274
60.00 0.03847
60.50 0.03432
61.00 0.03018
61.50 0.02721
62.00 0.02497
62.50 0.02273
63.00 0.02049
63.50 0.01824
64.00 0.01607
64.50 0.01456
65.00 0.01337
65.50 0.01219
66.00 0.01101
66.50 0.00982
67.00 0.00864
67.50 0.00790
68.00 0.00722
68.50 0.00654
69.00 0.00584
69.50 0.00513
70.00 0.00470
70.50 0.00432
71.00 0.00395
71.50 0.00358
72.00 0.00320
72.50 0.00282
73.00 0.00256
73.50 0.00237
74.00 0.00218
74.50 0.00199
75.00 0.00181
75.50 0.00162
76.00 0.00143
76.50 0.00125
77.00 0.00115
77.50 0.00107
78.00 0.00099
78.50 0.00090
79.00 0.00082
79.50 0.00074
80.00 0.00065
80.50 0.00058
81.00 0.00054
81.50 0.00051
82.00 0.00047
82.50 0.00043
83.00 0.00039
83.50 0.00035
84.00 0.00032
84.50 0.00029
85.00 0.00027
85.50 0.00025
86.00 0.00023
86.50 0.00021
87.00 0.00019
87.50 0.00017
88.00 0.00016
88.50 0.00016
89.00 0.00015
89.50 0.00014
90.00 0.00013
90.00 0.00013
90.50 0.00014
91.00 0.00015
91.50 0.00016
92.00 0.00016
92.50 0.00017
93.00 0.00019
93.50 0.00021
94.00 0.00023
94.50 0.00025
95.00 0.00027
95.50 0.00029
96.00 0.00032
96.50 0.00035
97.00 0.00039
97.50 0.00043
98.00 0.00047
98.50 0.00051
99.00 0.00054
99.50 0.00058
100.00 0.00065
100.50 0.00074
101.00 0.00082
101.50 0.00090
102.00 0.00099
102.50 0.00107
103.00 0.00115
103.50 0.00125
104.00 0.00143
104.50 0.00162
105.00 0.00181
105.50 0.00199
106.00 0.00218
106.50 0.00237
107.00 0.00256
107.50 0.00282
108.00 0.00320
108.50 0.00358
109.00 0.00395
109.50 0.00432
110.00 0.00470
110.50 0.00513
111.00 0.00584
111.50 0.00654
112.00 0.00722
112.50 0.00790
113.00 0.00864
113.50 0.00982
114.00 0.01101
114.50 0.01219
115.00 0.01337
115.50 0.01456
116.00 0.01607
116.50 0.01824
117.00 0.02049
117.50 0.02273
118.00 0.02497
118.50 0.02721
119.00 0.03018
119.50 0.03432
120.00 0.03847
120.50 0.04274
121.00 0.04717
121.50 0.05161
122.00 0.05722
122.50 0.06490
123.00 0.07257
123.50 0.08025
124.00 0.08793
124.50 0.09561
125.00 0.10811
125.50 0.12150
126.00 0.13488
126.50 0.14826
127.00 0.16163
127.50 0.17876
128.00 0.20062
128.50 0.22245
129.00 0.24443
129.50 0.26644
130.00 0.29072
130.50 0.32142
131.00 0.35205
131.50 0.38269
132.00 0.41341
132.50 0.44885
133.00 0.48669
133.50 0.52372
134.00 0.56001
134.50 0.59614
135.00 0.63311
135.50 0.66829
136.00 0.70671
136.50 0.74492
137.00 0.77978
137.50 0.81275
138.00 0.84804
138.50 0.88342
139.00 0.91439
139.50 0.94518
140.00 0.97573
140.50 1.00591
141.00 1.03562
141.50 1.06428
142.00 1.09277
142.50 1.11672
143.00 1.13612
143.50 1.15706
144.00 1.17962
144.50 1.20203
145.00 1.22429
145.50 1.24104
146.00 1.25673
146.50 1.27508
147.00 1.29332
147.50 1.31148
148.00 1.32838
148.50 1.34178
149.00 1.35359
149.50 1.36722
150.00 1.38081
150.50 1.39437
151.00 1.40789
151.50 1.42137
152.00 1.43482
152.50 1.44494
153.00 1.45254
153.50 1.45987
154.00 1.46939
154.50 1.47892
155.00 1.48848
155.50 1.49806
156.00 1.50765
156.50 1.51727
157.00 1.52539
157.50 1.53175
158.00 1.53709
158.50 1.54211
159.00 1.54738
159.50 1.55269
160.00 1.55805
160.50 1.56346
161.00 1.56890
161.50 1.57439
162.00 1.57775
162.50 1.57953
163.00 1.58004
163.50 1.58194
164.00 1.58391
164.50 1.58595
165.00 1.58807
165.50 1.59025
166.00 1.59251
166.50 1.59275
167.00 1.59281
167.50 1.59203
168.00 1.59128
168.50 1.59158
169.00 1.59205
169.50 1.59261
170.00 1.59328
170.50 1.59404
171.00 1.59464
171.50 1.59338
172.00 1.59222
172.50 1.59116
173.00 1.59090
173.50 1.59078
174.00 1.59078
174.50 1.59053
175.00 1.58967
175.50 1.58891
176.00 1.58834
176.50 1.58798
177.00 1.58774
177.50 1.58757
178.00 1.58739
178.50 1.58700
179.00 1.58672
179.50 1.58688
180.00 1.58723
180.00 1.58723
180.50 1.58688
181.00 1.58672
181.50 1.58700
182.00 1.58739
182.50 1.58757
183.00 1.58774
183.50 1.58798
184.00 1.58834
184.50 1.58891
185.00 1.58967
185.50 1.59053
186.00 1.59078
186.50 1.59078
187.00 1.59090
187.50 1.59116
188.00 1.59222
188.50 1.59338
189.00 1.59464
189.50 1.59404
190.00 1.59328
190.50 1.59261
191.00 1.59205
191.50 1.59158
192.00 1.59128
192.50 1.59203
193.00 1.59281
193.50 1.59275
194.00 1.59251
194.50 1.59025
195.00 1.58807
195.50 1.58595
196.00 1.58391
196.50 1.58194
197.00 1.58004
197.50 1.57953
198.00 1.57775
198.50 1.57439
199.00 1.56890
199.50 1.56346
200.00 1.55805
200.50 1.55269
201.00 1.54738
201.50 1.54211
202.00 1.53709
202.50 1.53175
203.00 1.52539
203.50 1.51727
204.00 1.50765
204.50 1.49806
205.00 1.48848
205.50 1.47892
206.00 1.46939
206.50 1.45987
207.00 1.45254
207.50 1.44494
208.00 1.43482
208.50 1.42137
209.00 1.40789
209.50 1.39437
210.00 1.38081
210.50 1.36722
211.00 1.35359
211.50 1.34178
212.00 1.32838
212.50 1.31148
213.00 1.29332
213.50 1.27508
214.00 1.25673
214.50 1.24104
215.00 1.22429
215.50 1.20203
216.00 1.17962
216.50 1.15706
217.00 1.13612
217.50 1.11672
218.00 1.09277
218.50 1.06428
219.00 1.03562
219.50 1.00591
220.00 0.97573
220.50 0.94518
221.00 0.91439
221.50 0.88342
222.00 0.84804
222.50 0.81275
223.00 0.77978
223.50 0.74492
224.00 0.70671
224.50 0.66829
225.00 0.63311
225.50 0.59614
226.00 0.56001
226.50 0.52372
227.00 0.48669
227.50 0.44885
228.00 0.41341
228.50 0.38269
229.00 0.35205
229.50 0.32142
230.00 0.29072
230.50 0.26644
231.00 0.24443
231.50 0.22245
232.00 0.20062
232.50 0.17876
233.00 0.16163
233.50 0.14826
234.00 0.13488
234.50 0.12150
235.00 0.10811
235.50 0.09561
236.00 0.08793
236.50 0.08025
237.00 0.07257
237.50 0.06490
238.00 0.05722
238.50 0.05161
239.00 0.04717
239.50 0.04274
240.00 0.03847
240.50 0.03432
241.00 0.03018
241.50 0.02721
242.00 0.02497
242.50 0.02273
243.00 0.02049
243.50 0.01824
244.00 0.01607
244.50 0.01456
245.00 0.01337
245.50 0.01219
246.00 0.01101
246.50 0.00982
247.00 0.00864
247.50 0.00790
248.00 0.00722
248.50 0.00654
249.00 0.00584
249.50 0.00513
250.00 0.00470
250.50 0.00432
251.00 0.00395
251.50 0.00358
252.00 0.00320
252.50 0.00282
253.00 0.00256
253.50 0.00237
254.00 0.00218
254.50 0.00199
255.00 0.00181
255.50 0.00162
256.00 0.00143
256.50 0.00125
257.00 0.00115
257.50 0.00107
258.00 0.00099
258.50 0.00090
259.00 0.00082
259.50 0.00074
260.00 0.00065
260.50 0.00058
261.00 0.00054
261.50 0.00051
262.00 0.00047
262.50 0.00043
263.00 0.00039
263.50 0.00035
264.00 0.00032
264.50 0.00029
265.00 0.00027
265.50 0.00025
266.00 0.00023
266.50 0.00021
267.00 0.00019
267.50 0.00017
268.00 0.00016
268.50 0.00016
269.00 0.00015
269.50 0.00014
270.00 0.00013
270.00 0.00013
270.50 0.00014
271.00 0.00015
271.50 0.00016
272.00 0.00016
272.50 0.00017
273.00 0.00019
273.50 0.00021
274.00 0.00023
274.50 0.00025
275.00 0.00027
275.50 0.00029
276.00 0.00032
276.50 0.00035
277.00 0.00039
277.50 0.00043
278.00 0.00047
278.50 0.00051
279.00 0.00054
279.50 0.00058
280.00 0.00065
280.50 0.00074
281.00 0.00082
281.50 0.00090
282.00 0.00099
282.50 0.00107
283.00 0.00115
283.50 0.00125
284.00 0.00143
284.50 0.00162
285.00 0.00181
285.50 0.00199
286.00 0.00218
286.50 0.00237
287.00 0.00256
287.50 0.00282
288.00 0.00320
288.50 0.00358
289.00 0.00395
289.50 0.00432
290.00 0.00470
290.50 0.00513
291.00 0.00584
291.50 0.00654
292.00 0.00722
292.50 0.00790
293.00 0.00864
293.50 0.00982
294.00 0.01101
294.50 0.01219
295.00 0.01337
295.50 0.01456
296.00 0.01607
296.50 0.01824
297.00 0.02049
297.50 0.02273
298.00 0.02497
298.50 0.02721
299.00 0.03018
299.50 0.03432
300.00 0.03847
300.50 0.04274
301.00 0.04717
301.50 0.05161
302.00 0.05722
302.50 0.06490
303.00 0.07257
303.50 0.08025
304.00 0.08793
304.50 0.09561
305.00 0.10811
305.50 0.12150
306.00 0.13488
306.50 0.14826
307.00 0.16163
307.50 0.17876
308.00 0.20062
308.50 0.22245
309.00 0.24443
309.50 0.26644
310.00 0.29072
310.50 0.32142
311.00 0.35205
311.50 0.38269
312.00 0.41341
312.50 0.44885
313.00 0.48669
313.50 0.52372
314.00 0.56001
314.50 0.59614
315.00 0.63311
315.50 0.66829
316.00 0.70671
316.50 0.74492
317.00 0.77978
317.50 0.81275
318.00 0.84804
318.50 0.88342
319.00 0.91439
319.50 0.94518
320.00 0.97573
320.50 1.00591
321.00 1.03562
321.50 1.06428
322.00 1.09277
322.50 1.11672
323.00 1.13612
323.50 1.15706
324.00 1.17962
324.50 1.20203
325.00 1.22429
325.50 1.24104
326.00 1.25673
326.50 1.27508
327.00 1.29332
327.50 1.31148
328.00 1.32838
328.50 1.34178
329.00 1.35359
329.50 1.36722
330.00 1.38081
330.50 1.39437
331.00 1.40789
331.50 1.42137
332.00 1.43482
332.50 1.44494
333.00 1.45254
333.50 1.45987
334.00 1.46939
334.50 1.47892
335.00 1.48848
335.50 1.49806
336.00 1.50765
336.50 1.51727
337.00 1.52539
337.50 1.53175
338.00 1.53709
338.50 1.54211
339.00 1.54738
339.50 1.55269
340.00 1.55805
340.50 1.56346
341.00 1.56890
341.50 1.57439
342.00 1.57775
342.50 1.57953
343.00 1.58004
343.50 1.58194
344.00 1.58391
344.50 1.58595
345.00 1.58807
345.50 1.59025
346.00 1.59251
346.50 1.59275
347.00 1.59281
347.50 1.59203
348.00 1.59128
348.50 1.59158
349.00 1.59205
349.50 1.59261
350.00 1.59328
350.50 1.59404
351.00 1.59464
351.50 1.59338
352.00 1.59222
352.50 1.59116
353.00 1.59090
353.50 1.59078
354.00 1.59078
354.50 1.59053
355.00 1.58967
355.50 1.58891
356.00 1.58834
356.50 1.58798
357.00 1.58774
357.50 1.58757
358.00 1.58739
358.50 1.58700
359.00 1.58672
359.50 1.58688
360.00 1.58723
