phi[deg] B[T]
0.00 1.29294
0.50 1.29244
1.00 1.29204
1.50 1.29173
2.00 1.29191
2.50 1.29167
3.00 1.29135
3.50 1.29116
4.00 1.29105
4.50 1.29104
5.00 1.29068
5.50 1.29028
6.00 1.28973
6.50 1.28929
7.00 1.28893
7.50 1.28866
8.00 1.28864
8.50 1.28863
9.00 1.28834
9.50 1.28770
10.00 1.28715
10.50 1.28668
11.00 1.28630
11.50 1.28600
12.00 1.28580
12.50 1.28567
13.00 1.28603
13.50 1.28632
14.00 1.28558
14.50 1.28479
15.00 1.28407
15.50 1.28343
16.00 1.28285
16.50 1.28235
17.00 1.28191
17.50 1.28226
18.00 1.28319
18.50 1.28314
19.00 1.28088
19.50 1.27865
20.00 1.27646
20.50 1.27430
21.00 1.27218
21.50 1.27009
22.00 1.26804
22.50 1.26917
23.00 1.26973
23.50 1.26920
24.00 1.26538
24.50 1.25906
25.00 1.25269
25.50 1.24627
26.00 1.23979
26.50 1.23326
27.00 1.22712
27.50 1.22266
28.00 1.21815
28.50 1.20850
29.00 1.19352
29.50 1.17842
30.00 1.16321
30.50 1.14788
31.00 1.13408
31.50 1.12491
32.00 1.11202
32.50 1.09134
33.00 1.07049
33.50 1.04810
34.00 1.02538
34.50 1.00085
35.00 0.97547
35.50 0.94991
36.00 0.92097
36.50 0.88894
37.00 0.85855
37.50 0.82805
38.00 0.79734
38.50 0.76292
39.00 0.72384
39.50 0.68455
40.00 0.64593
40.50 0.60764
41.00 0.57009
41.50 0.53294
42.00 0.49738
42.50 0.46185
43.00 0.42620
43.50 0.39133
44.00 0.36009
44.50 0.32875
45.00 0.29693
45.50 0.27182
46.00 0.24766
46.50 0.22347
47.00 0.20232
47.50 0.18141
48.00 0.16555
48.50 0.15029
49.00 0.13505
49.50 0.12086
50.00 0.10940
50.50 0.09879
51.00 0.09035
51.50 0.08192
52.00 0.07352
52.50 0.06534
53.00 0.05722
53.50 0.05200
54.00 0.04780
54.50 0.04406
55.00 0.04033
55.50 0.03650
56.00 0.03264
56.50 0.02879
57.00 0.02493
57.50 0.02247
58.00 0.02068
58.50 0.01888
59.00 0.01708
59.50 0.01529
60.00 0.01364
60.50 0.01210
61.00 0.01075
61.50 0.00992
62.00 0.00909
62.50 0.00826
63.00 0.00743
63.50 0.00660
64.00 0.00580
64.50 0.00528
65.00 0.00489
65.50 0.00451
66.00 0.00413
66.50 0.00373
67.00 0.00334
67.50 0.00295
68.00 0.00257
68.50 0.00237
69.00 0.00220
69.50 0.00203
70.00 0.00186
70.50 0.00168
71.00 0.00151
71.50 0.00134
72.00 0.00117
72.50 0.00107
73.00 0.00100
73.50 0.00092
74.00 0.00085
74.50 0.00078
75.00 0.00071
75.50 0.00063
76.00 0.00056
76.50 0.00052
77.00 0.00049
77.50 0.00045
78.00 0.00042
78.50 0.00038
79.00 0.00035
79.50 0.00032
80.00 0.00030
80.50 0.00028
81.00 0.00026
81.50 0.00024
82.00 0.00022
82.50 0.00020
83.00 0.00019
83.50 0.00017
84.00 0.00016
84.50 0.00015
85.00 0.00013
85.50 0.00012
86.00 0.00011
86.50 0.00010
87.00 0.00009
87.50 0.00008
88.00 0.00007
88.50 0.00006
89.00 0.00006
89.50 0.00006
90.00 0.00005
90.00 0.00005
90.50 0.00006
91.00 0.00006
91.50 0.00006
92.00 0.00007
92.50 0.00008
93.00 0.00009
93.50 0.00010
94.00 0.00011
94.50 0.00012
95.00 0.00013
95.50 0.00015
96.00 0.00016
96.50 0.00017
97.00 0.00019
97.50 0.00020
98.00 0.00022
98.50 0.00024
99.00 0.00026
99.50 0.00028
100.00 0.00030
100.50 0.00032
101.00 0.00035
101.50 0.00038
102.00 0.00042
102.50 0.00045
103.00 0.00049
103.50 0.00052
104.00 0.00056
104.50 0.00063
105.00 0.00071
105.50 0.00078
106.00 0.00085
106.50 0.00092
107.00 0.00100
107.50 0.00107
108.00 0.00117
108.50 0.00134
109.00 0.00151
109.50 0.00168
110.00 0.00186
110.50 0.00203
111.00 0.00220
111.50 0.00237
112.00 0.00257
112.50 0.00295
113.00 0.00334
113.50 0.00373
114.00 0.00413
114.50 0.00451
115.00 0.00489
115.50 0.00528
116.00 0.00580
116.50 0.00660
117.00 0.00743
117.50 0.00826
118.00 0.00909
118.50 0.00992
119.00 0.01075
119.50 0.01210
120.00 0.01364
120.50 0.01529
121.00 0.01708
121.50 0.01888
122.00 0.02068
122.50 0.02247
123.00 0.02493
123.50 0.02879
124.00 0.03264
124.50 0.03650
125.00 0.04033
125.50 0.04406
126.00 0.04780
126.50 0.05200
127.00 0.05722
127.50 0.06534
128.00 0.07352
128.50 0.08192
129.00 0.09035
129.50 0.09879
130.00 0.10940
130.50 0.12086
131.00 0.13505
131.50 0.15029
132.00 0.16555
132.50 0.18141
133.00 0.20232
133.50 0.22347
134.00 0.24766
134.50 0.27182
135.00 0.29693
135.50 0.32875
136.00 0.36009
136.50 0.39133
137.00 0.42620
137.50 0.46185
138.00 0.49738
138.50 0.53294
139.00 0.57009
139.50 0.60764
140.00 0.64593
140.50 0.68455
141.00 0.72384
141.50 0.76292
142.00 0.79734
142.50 0.82805
143.00 0.85855
143.50 0.88894
144.00 0.92097
144.50 0.94991
145.00 0.97547
145.50 1.00085
146.00 1.02538
146.50 1.04810
147.00 1.07049
147.50 1.09134
148.00 1.11202
148.50 1.12491
149.00 1.13408
149.50 1.14788
150.00 1.16321
150.50 1.17842
151.00 1.19352
151.50 1.20850
152.00 1.21815
152.50 1.22266
153.00 1.22712
153.50 1.23326
154.00 1.23979
154.50 1.24627
155.00 1.25269
155.50 1.25906
156.00 1.26538
156.50 1.26920
157.00 1.26973
157.50 1.26917
158.00 1.26804
158.50 1.27009
159.00 1.27218
159.50 1.27430
160.00 1.27646
160.50 1.27865
161.00 1.28088
161.50 1.28314
162.00 1.28319
162.50 1.28226
163.00 1.28191
163.50 1.28235
164.00 1.28285
164.50 1.28343
165.00 1.28407
165.50 1.28479
166.00 1.28558
166.50 1.28632
167.00 1.28603
167.50 1.28567
168.00 1.28580
168.50 1.28600
169.00 1.28630
169.50 1.28668
170.00 1.28715
170.50 1.28770
171.00 1.28834
171.50 1.28863
172.00 1.28864
172.50 1.28866
173.00 1.28893
173.50 1.28929
174.00 1.28973
174.50 1.29028
175.00 1.29068
175.50 1.29104
176.00 1.29105
176.50 1.29116
177.00 1.29135
177.50 1.29167
178.00 1.29191
178.50 1.29173
179.00 1.29204
179.50 1.29244
180.00 1.29294
180.00 1.29294
180.50 1.29244
181.00 1.29204
181.50 1.29173
182.00 1.29191
182.50 1.29167
183.00 1.29135
183.50 1.29116
184.00 1.29105
184.50 1.29104
185.00 1.29068
185.50 1.29028
186.00 1.28973
186.50 1.28929
187.00 1.28893
187.50 1.28866
188.00 1.28864
188.50 1.28863
189.00 1.28834
189.50 1.28770
190.00 1.28715
190.50 1.28668
191.00 1.28630
191.50 1.28600
192.00 1.28580
192.50 1.28567
193.00 1.28603
193.50 1.28632
194.00 1.28558
194.50 1.28479
195.00 1.28407
195.50 1.28343
196.00 1.28285
196.50 1.28235
197.00 1.28191
197.50 1.28226
198.00 1.28319
198.50 1.28314
199.00 1.28088
199.50 1.27865
200.00 1.27646
200.50 1.27430
201.00 1.27218
201.50 1.27009
202.00 1.26804
202.50 1.26917
203.00 1.26973
203.50 1.26920
204.00 1.26538
204.50 1.25906
205.00 1.25269
205.50 1.24627
206.00 1.23979
206.50 1.23326
207.00 1.22712
207.50 1.22266
208.00 1.21815
208.50 1.20850
209.00 1.19352
209.50 1.17842
210.00 1.16321
210.50 1.14788
211.00 1.13408
211.50 1.12491
212.00 1.11202
212.50 1.09134
213.00 1.07049
213.50 1.04810
214.00 1.02538
214.50 1.00085
215.00 0.97547
215.50 0.94991
216.00 0.92097
216.50 0.88894
217.00 0.85855
217.50 0.82805
218.00 0.79734
218.50 0.76292
219.00 0.72384
219.50 0.68455
220.00 0.64593
220.50 0.60764
221.00 0.57009
221.50 0.53294
222.00 0.49738
222.50 0.46185
223.00 0.42620
223.50 0.39133
224.00 0.36009
224.50 0.32875
225.00 0.29693
225.50 0.27182
226.00 0.24766
226.50 0.22347
227.00 0.20232
227.50 0.18141
228.00 0.16555
228.50 0.15029
229.00 0.13505
229.50 0.12086
230.00 0.10940
230.50 0.09879
231.00 0.09035
231.50 0.08192
232.00 0.07352
232.50 0.06534
233.00 0.05722
233.50 0.05200
234.00 0.04780
234.50 0.04406
235.00 0.04033
235.50 0.03650
236.00 0.03264
236.50 0.02879
237.00 0.02493
237.50 0.02247
238.00 0.02068
238.50 0.01888
239.00 0.01708
239.50 0.01529
240.00 0.01364
240.50 0.01210
241.00 0.01075
241.50 0.00992
242.00 0.00909
242.50 0.00826
243.00 0.00743
243.50 0.00660
244.00 0.00580
244.50 0.00528
245.00 0.00489
245.50 0.00451
246.00 0.00413
246.50 0.00373
247.00 0.00334
247.50 0.00295
248.00 0.00257
248.50 0.00237
249.00 0.00220
249.50 0.00203
250.00 0.00186
250.50 0.00168
251.00 0.00151
251.50 0.00134
252.00 0.00117
252.50 0.00107
253.00 0.00100
253.50 0.00092
254.00 0.00085
254.50 0.00078
255.00 0.00071
255.50 0.00063
256.00 0.00056
256.50 0.00052
257.00 0.00049
257.50 0.00045
258.00 0.00042
258.50 0.00038
259.00 0.00035
259.50 0.00032
260.00 0.00030
260.50 0.00028
261.00 0.00026
261.50 0.00024
262.00 0.00022
262.50 0.00020
263.00 0.00019
263.50 0.00017
264.00 0.00016
264.50 0.00015
265.00 0.00013
265.50 0.00012
266.00 0.00011
266.50 0.00010
267.00 0.00009
267.50 0.00008
268.00 0.00007
268.50 0.00006
269.00 0.00006
269.50 0.00006
270.00 0.00005
270.00 0.00005
270.50 0.00006
271.00 0.00006
271.50 0.00006
272.00 0.00007
272.50 0.00008
273.00 0.00009
273.50 0.00010
274.00 0.00011
274.50 0.00012
275.00 0.00013
275.50 0.00015
276.00 0.00016
276.50 0.00017
277.00 0.00019
277.50 0.00020
278.00 0.00022
278.50 0.00024
279.00 0.00026
279.50 0.00028
280.00 0.00030
280.50 0.00032
281.00 0.00035
281.50 0.00038
282.00 0.00042
282.50 0.00045
283.00 0.00049
283.50 0.00052
284.00 0.00056
284.50 0.00063
285.00 0.00071
285.50 0.00078
286.00 0.00085
286.50 0.00092
287.00 0.00100
287.50 0.00107
288.00 0.00117
288.50 0.00134
289.00 0.00151
289.50 0.00168
290.00 0.00186
290.50 0.00203
291.00 0.00220
291.50 0.00237
292.00 0.00257
292.50 0.00295
293.00 0.00334
293.50 0.00373
294.00 0.00413
294.50 0.00451
295.00 0.00489
295.50 0.00528
296.00 0.00580
296.50 0.00660
297.00 0.00743
297.50 0.00826
298.00 0.00909
298.50 0.00992
299.00 0.01075
299.50 0.01210
300.00 0.01364
300.50 0.01529
301.00 0.01708
301.50 0.01888
302.00 0.02068
302.50 0.02247
303.00 0.02493
303.50 0.02879
304.00 0.03264
304.50 0.03650
305.00 0.04033
305.50 0.04406
306.00 0.04780
306.50 0.05200
307.00 0.05722
307.50 0.06534
308.00 0.07352
308.50 0.08192
309.00 0.09035
309.50 0.09879
310.00 0.10940
310.50 0.12086
311.00 0.13505
311.50 0.15029
312.00 0.16555
312.50 0.18141
313.00 0.20232
313.50 0.22347
314.00 0.24766
314.50 0.27182
315.00 0.29693
315.50 0.32875
316.00 0.36009
316.50 0.39133
317.00 0.42620
317.50 0.46185
318.00 0.49738
318.50 0.53294
319.00 0.57009
319.50 0.60764
320.00 0.64593
320.50 0.68455
321.00 0.72384
321.50 0.76292
322.00 0.79734
322.50 0.82805
323.00 0.85855
323.50 0.88894
324.00 0.92097
324.50 0.94991
325.00 0.97547
325.50 1.00085
326.00 1.02538
326.50 1.04810
327.00 1.07049
327.50 1.09134
328.00 1.11202
328.50 1.12491
329.00 1.13408
329.50 1.14788
330.00 1.16321
330.50 1.17842
331.00 1.19352
331.50 1.20850
332.00 1.21815
332.50 1.22266
333.00 1.22712
333.50 1.23326
334.00 1.23979
334.50 1.24627
335.00 1.25269
335.50 1.25906
336.00 1.26538
336.50 1.26920
337.00 1.26973
337.50 1.26917
338.00 1.26804
338.50 1.27009
339.00 1.27218
339.50 1.27430
340.00 1.27646
340.50 1.27865
341.00 1.28088
341.50 1.28314
342.00 1.28319
342.50 1.28226
343.00 1.28191
343.50 1.28235
344.00 1.28285
344.50 1.28343
345.00 1.28407
345.50 1.28479
346.00 1.28558
346.50 1.28632
347.00 1.28603
347.50 1.28567
348.00 1.28580
348.50 1.28600
349.00 1.28630
349.50 1.28668
350.00 1.28715
350.50 1.28770
351.00 1.28834
351.50 1.28863
352.00 1.28864
352.50 1.28866
353.00 1.28893
353.50 1.28929
354.00 1.28973
354.50 1.29028
355.00 1.29068
355.50 1.29104
356.00 1.29105
356.50 1.29116
357.00 1.29135
357.50 1.29167
358.00 1.29191
358.50 1.29173
359.00 1.29204
359.50 1.29244
360.00 1.29294
