phi[deg] B[T]
0.00 1.06580
0.50 1.06559
1.00 1.06543
1.50 1.06533
2.00 1.06529
2.50 1.06530
3.00 1.06521
3.50 1.06514
4.00 1.06512
4.50 1.06515
5.00 1.06523
5.50 1.06548
6.00 1.06611
6.50 1.06647
7.00 1.06651
7.50 1.06659
8.00 1.06671
8.50 1.06689
9.00 1.06710
9.50 1.06737
10.00 1.06828
10.50 1.06967
11.00 1.07074
11.50 1.07144
12.00 1.07217
12.50 1.07292
13.00 1.07371
13.50 1.07453
14.00 1.07538
14.50 1.07657
15.00 1.07825
15.50 1.07940
16.00 1.08057
16.50 1.08175
17.00 1.08295
17.50 1.08417
18.00 1.08554
18.50 1.08610
19.00 1.08665
19.50 1.08729
20.00 1.08810
20.50 1.08788
21.00 1.08691
21.50 1.08654
22.00 1.08615
22.50 1.08576
23.00 1.08534
23.50 1.08497
24.00 1.08306
24.50 1.07898
25.00 1.07485
25.50 1.07070
26.00 1.06651
26.50 1.06252
27.00 1.05644
27.50 1.05033
28.00 1.04417
28.50 1.03796
29.00 1.03170
29.50 1.02674
30.00 1.02039
30.50 1.00869
31.00 0.99690
31.50 0.98503
32.00 0.97306
32.50 0.96102
33.00 0.94889
33.50 0.93657
34.00 0.91932
34.50 0.90193
35.00 0.88440
35.50 0.86674
36.00 0.84894
36.50 0.83101
37.00 0.81295
37.50 0.79477
38.00 0.77705
38.50 0.75332
39.00 0.73116
39.50 0.70935
40.00 0.68743
40.50 0.66540
41.00 0.64327
41.50 0.62102
42.00 0.59571
42.50 0.56876
43.00 0.54171
43.50 0.51456
44.00 0.48731
44.50 0.46137
45.00 0.43675
45.50 0.41014
46.00 0.38689
46.50 0.36629
47.00 0.34565
47.50 0.32496
48.00 0.30423
48.50 0.28693
49.00 0.26983
49.50 0.25268
50.00 0.23550
50.50 0.21827
51.00 0.20101
51.50 0.18553
52.00 0.17476
52.50 0.16399
53.00 0.15321
53.50 0.14244
54.00 0.13166
54.50 0.12089
55.00 0.11162
55.50 0.10461
56.00 0.09759
56.50 0.09056
57.00 0.08465
57.50 0.07875
58.00 0.07286
58.50 0.06696
59.00 0.06116
59.50 0.05770
60.00 0.05423
60.50 0.05077
61.00 0.04730
61.50 0.04383
62.00 0.04036
62.50 0.03750
63.00 0.03480
63.50 0.03211
64.00 0.02943
64.50 0.02740
65.00 0.02574
65.50 0.02409
66.00 0.02243
66.50 0.02077
67.00 0.01911
67.50 0.01749
68.00 0.01645
68.50 0.01542
69.00 0.01440
69.50 0.01337
70.00 0.01234
70.50 0.01142
71.00 0.01061
71.50 0.00981
72.00 0.00900
72.50 0.00820
73.00 0.00771
73.50 0.00730
74.00 0.00689
74.50 0.00647
75.00 0.00606
75.50 0.00565
76.00 0.00524
76.50 0.00483
77.00 0.00442
77.50 0.00401
78.00 0.00375
78.50 0.00355
79.00 0.00334
79.50 0.00314
80.00 0.00294
80.50 0.00273
81.00 0.00255
81.50 0.00237
82.00 0.00219
82.50 0.00202
83.00 0.00189
83.50 0.00181
84.00 0.00174
84.50 0.00166
85.00 0.00158
85.50 0.00151
86.00 0.00143
86.50 0.00135
87.00 0.00131
87.50 0.00128
88.00 0.00125
88.50 0.00121
89.00 0.00118
89.50 0.00115
90.00 0.00112
90.00 0.00112
90.50 0.00115
91.00 0.00118
91.50 0.00121
92.00 0.00125
92.50 0.00128
93.00 0.00131
93.50 0.00135
94.00 0.00143
94.50 0.00151
95.00 0.00158
95.50 0.00166
96.00 0.00174
96.50 0.00181
97.00 0.00189
97.50 0.00202
98.00 0.00219
98.50 0.00237
99.00 0.00255
99.50 0.00273
100.00 0.00294
100.50 0.00314
101.00 0.00334
101.50 0.00355
102.00 0.00375
102.50 0.00401
103.00 0.00442
103.50 0.00483
104.00 0.00524
104.50 0.00565
105.00 0.00606
105.50 0.00647
106.00 0.00689
106.50 0.00730
107.00 0.00771
107.50 0.00820
108.00 0.00900
108.50 0.00981
109.00 0.01061
109.50 0.01142
110.00 0.01234
110.50 0.01337
111.00 0.01440
111.50 0.01542
112.00 0.01645
112.50 0.01749
113.00 0.01911
113.50 0.02077
114.00 0.02243
114.50 0.02409
115.00 0.02574
115.50 0.02740
116.00 0.02943
116.50 0.03211
117.00 0.03480
117.50 0.03750
118.00 0.04036
118.50 0.04383
119.00 0.04730
119.50 0.05077
120.00 0.05423
120.50 0.05770
121.00 0.06116
121.50 0.06696
122.00 0.07286
122.50 0.07875
123.00 0.08465
123.50 0.09056
124.00 0.09759
124.50 0.10461
125.00 0.11162
125.50 0.12089
126.00 0.13166
126.50 0.14244
127.00 0.15321
127.50 0.16399
128.00 0.17476
128.50 0.18553
129.00 0.20101
129.50 0.21827
130.00 0.23550
130.50 0.25268
131.00 0.26983
131.50 0.28693
132.00 0.30423
132.50 0.32496
133.00 0.34565
133.50 0.36629
134.00 0.38689
134.50 0.41014
135.00 0.43675
135.50 0.46137
136.00 0.48731
136.50 0.51456
137.00 0.54171
137.50 0.56876
138.00 0.59571
138.50 0.62102
139.00 0.64327
139.50 0.66540
140.00 0.68743
140.50 0.70935
141.00 0.73116
141.50 0.75332
142.00 0.77705
142.50 0.79477
143.00 0.81295
143.50 0.83101
144.00 0.84894
144.50 0.86674
145.00 0.88440
145.50 0.90193
146.00 0.91932
146.50 0.93657
147.00 0.94889
147.50 0.96102
148.00 0.97306
148.50 0.98503
149.00 0.99690
149.50 1.00869
150.00 1.02039
150.50 1.02674
151.00 1.03170
151.50 1.03796
152.00 1.04417
152.50 1.05033
153.00 1.05644
153.50 1.06252
154.00 1.06651
154.50 1.07070
155.00 1.07485
155.50 1.07898
156.00 1.08306
156.50 1.08497
157.00 1.08534
157.50 1.08576
158.00 1.08615
158.50 1.08654
159.00 1.08691
159.50 1.08788
160.00 1.08810
160.50 1.08729
161.00 1.08665
161.50 1.08610
162.00 1.08554
162.50 1.08417
163.00 1.08295
163.50 1.08175
164.00 1.08057
164.50 1.07940
165.00 1.07825
165.50 1.07657
166.00 1.07538
166.50 1.07453
167.00 1.07371
167.50 1.07292
168.00 1.07217
168.50 1.07144
169.00 1.07074
169.50 1.06967
170.00 1.06828
170.50 1.06737
171.00 1.06710
171.50 1.06689
172.00 1.06671
172.50 1.06659
173.00 1.06651
173.50 1.06647
174.00 1.06611
174.50 1.06548
175.00 1.06523
175.50 1.06515
176.00 1.06512
176.50 1.06514
177.00 1.06521
177.50 1.06530
178.00 1.06529
178.50 1.06533
179.00 1.06543
179.50 1.06559
180.00 1.06580
180.00 1.06580
180.50 1.06559
181.00 1.06543
181.50 1.06533
182.00 1.06529
182.50 1.06530
183.00 1.06521
183.50 1.06514
184.00 1.06512
184.50 1.06515
185.00 1.06523
185.50 1.06548
186.00 1.06611
186.50 1.06647
187.00 1.06651
187.50 1.06659
188.00 1.06671
188.50 1.06689
189.00 1.06710
189.50 1.06737
190.00 1.06828
190.50 1.06967
191.00 1.07074
191.50 1.07144
192.00 1.07217
192.50 1.07292
193.00 1.07371
193.50 1.07453
194.00 1.07538
194.50 1.07657
195.00 1.07825
195.50 1.07940
196.00 1.08057
196.50 1.08175
197.00 1.08295
197.50 1.08417
198.00 1.08554
198.50 1.08610
199.00 1.08665
199.50 1.08729
200.00 1.08810
200.50 1.08788
201.00 1.08691
201.50 1.08654
202.00 1.08615
202.50 1.08576
203.00 1.08534
203.50 1.08497
204.00 1.08306
204.50 1.07898
205.00 1.07485
205.50 1.07070
206.00 1.06651
206.50 1.06252
207.00 1.05644
207.50 1.05033
208.00 1.04417
208.50 1.03796
209.00 1.03170
209.50 1.02674
210.00 1.02039
210.50 1.00869
211.00 0.99690
211.50 0.98503
212.00 0.97306
212.50 0.96102
213.00 0.94889
213.50 0.93657
214.00 0.91932
214.50 0.90193
215.00 0.88440
215.50 0.86674
216.00 0.84894
216.50 0.83101
217.00 0.81295
217.50 0.79477
218.00 0.77705
218.50 0.75332
219.00 0.73116
219.50 0.70935
220.00 0.68743
220.50 0.66540
221.00 0.64327
221.50 0.62102
222.00 0.59571
222.50 0.56876
223.00 0.54171
223.50 0.51456
224.00 0.48731
224.50 0.46137
225.00 0.43675
225.50 0.41014
226.00 0.38689
226.50 0.36629
227.00 0.34565
227.50 0.32496
228.00 0.30423
228.50 0.28693
229.00 0.26983
229.50 0.25268
230.00 0.23550
230.50 0.21827
231.00 0.20101
231.50 0.18553
232.00 0.17476
232.50 0.16399
233.00 0.15321
233.50 0.14244
234.00 0.13166
234.50 0.12089
235.00 0.11162
235.50 0.10461
236.00 0.09759
236.50 0.09056
237.00 0.08465
237.50 0.07875
238.00 0.07286
238.50 0.06696
239.00 0.06116
239.50 0.05770
240.00 0.05423
240.50 0.05077
241.00 0.04730
241.50 0.04383
242.00 0.04036
242.50 0.03750
243.00 0.03480
243.50 0.03211
244.00 0.02943
244.50 0.02740
245.00 0.02574
245.50 0.02409
246.00 0.02243
246.50 0.02077
247.00 0.01911
247.50 0.01749
248.00 0.01645
248.50 0.01542
249.00 0.01440
249.50 0.01337
250.00 0.01234
250.50 0.01142
251.00 0.01061
251.50 0.00981
252.00 0.00900
252.50 0.00820
253.00 0.00771
253.50 0.00730
254.00 0.00689
254.50 0.00647
255.00 0.00606
255.50 0.00565
256.00 0.00524
256.50 0.00483
257.00 0.00442
257.50 0.00401
258.00 0.00375
258.50 0.00355
259.00 0.00334
259.50 0.00314
260.00 0.00294
260.50 0.00273
261.00 0.00255
261.50 0.00237
262.00 0.00219
262.50 0.00202
263.00 0.00189
263.50 0.00181
264.00 0.00174
264.50 0.00166
265.00 0.00158
265.50 0.00151
266.00 0.00143
266.50 0.00135
267.00 0.00131
267.50 0.00128
268.00 0.00125
268.50 0.00121
269.00 0.00118
269.50 0.00115
270.00 0.00112
270.00 0.00112
270.50 0.00115
271.00 0.00118
271.50 0.00121
272.00 0.00125
272.50 0.00128
273.00 0.00131
273.50 0.00135
274.00 0.00143
274.50 0.00151
275.00 0.00158
275.50 0.00166
276.00 0.00174
276.50 0.00181
277.00 0.00189
277.50 0.00202
278.00 0.00219
278.50 0.00237
279.00 0.00255
279.50 0.00273
280.00 0.00294
280.50 0.00314
281.00 0.00334
281.50 0.00355
282.00 0.00375
282.50 0.00401
283.00 0.00442
283.50 0.00483
284.00 0.00524
284.50 0.00565
285.00 0.00606
285.50 0.00647
286.00 0.00689
286.50 0.00730
287.00 0.00771
287.50 0.00820
288.00 0.00900
288.50 0.00981
289.00 0.01061
289.50 0.01142
290.00 0.01234
290.50 0.01337
291.00 0.01440
291.50 0.01542
292.00 0.01645
292.50 0.01749
293.00 0.01911
293.50 0.02077
294.00 0.02243
294.50 0.02409
295.00 0.02574
295.50 0.02740
296.00 0.02943
296.50 0.03211
297.00 0.03480
297.50 0.03750
298.00 0.04036
298.50 0.04383
299.00 0.04730
299.50 0.05077
300.00 0.05423
300.50 0.05770
301.00 0.06116
301.50 0.06696
302.00 0.07286
302.50 0.07875
303.00 0.08465
303.50 0.09056
304.00 0.09759
304.50 0.10461
305.00 0.11162
305.50 0.12089
306.00 0.13166
306.50 0.14244
307.00 0.15321
307.50 0.16399
308.00 0.17476
308.50 0.18553
309.00 0.20101
309.50 0.21827
310.00 0.23550
310.50 0.25268
311.00 0.26983
311.50 0.28693
312.00 0.30423
312.50 0.32496
313.00 0.34565
313.50 0.36629
314.00 0.38689
314.50 0.41014
315.00 0.43675
315.50 0.46137
316.00 0.48731
316.50 0.51456
317.00 0.54171
317.50 0.56876
318.00 0.59571
318.50 0.62102
319.00 0.64327
319.50 0.66540
320.00 0.68743
320.50 0.70935
321.00 0.73116
321.50 0.75332
322.00 0.77705
322.50 0.79477
323.00 0.81295
323.50 0.83101
324.00 0.84894
324.50 0.86674
325.00 0.88440
325.50 0.90193
326.00 0.91932
326.50 0.93657
327.00 0.94889
327.50 0.96102
328.00 0.97306
328.50 0.98503
329.00 0.99690
329.50 1.00869
330.00 1.02039
330.50 1.02674
331.00 1.03170
331.50 1.03796
332.00 1.04417
332.50 1.05033
333.00 1.05644
333.50 1.06252
334.00 1.06651
334.50 1.07070
335.00 1.07485
335.50 1.07898
336.00 1.08306
336.50 1.08497
337.00 1.08534
337.50 1.08576
338.00 1.08615
338.50 1.08654
339.00 1.08691
339.50 1.08788
340.00 1.08810
340.50 1.08729
341.00 1.08665
341.50 1.08610
342.00 1.08554
342.50 1.08417
343.00 1.08295
343.50 1.08175
344.00 1.08057
344.50 1.07940
345.00 1.07825
345.50 1.07657
346.00 1.07538
346.50 1.07453
347.00 1.07371
347.50 1.07292
348.00 1.07217
348.50 1.07144
349.00 1.07074
349.50 1.06967
350.00 1.06828
350.50 1.06737
351.00 1.06710
351.50 1.06689
352.00 1.06671
352.50 1.06659
353.00 1.06651
353.50 1.06647
354.00 1.06611
354.50 1.06548
355.00 1.06523
355.50 1.06515
356.00 1.06512
356.50 1.06514
357.00 1.06521
357.50 1.06530
358.00 1.06529
358.50 1.06533
359.00 1.06543
359.50 1.06559
360.00 1.06580
