phi[deg] B[T]
0.00 1.27052
0.50 1.26924
1.00 1.26805
1.50 1.26688
2.00 1.26494
2.50 1.26311
3.00 1.26138
3.50 1.26029
4.00 1.25935
4.50 1.25806
5.00 1.25687
5.50 1.25641
6.00 1.25661
6.50 1.25715
7.00 1.25853
7.50 1.26001
8.00 1.26137
8.50 1.26280
9.00 1.26444
9.50 1.26777
10.00 1.27070
10.50 1.27328
11.00 1.27416
11.50 1.27504
12.00 1.27547
12.50 1.27348
13.00 1.27156
13.50 1.26988
14.00 1.26832
14.50 1.26590
15.00 1.26269
15.50 1.25972
16.00 1.25766
16.50 1.25569
17.00 1.25431
17.50 1.25325
18.00 1.25193
18.50 1.25018
19.00 1.24851
19.50 1.24918
20.00 1.25030
20.50 1.24857
21.00 1.24525
21.50 1.24198
22.00 1.23907
22.50 1.24066
23.00 1.23274
23.50 1.22483
24.00 1.21695
24.50 1.20906
25.00 1.19512
25.50 1.17925
26.00 1.16521
26.50 1.15145
27.00 1.13693
27.50 1.12036
28.00 1.10409
28.50 1.08955
29.00 1.07509
29.50 1.06069
30.00 1.04626
30.50 1.03314
31.00 1.02010
31.50 1.00666
32.00 0.99328
32.50 0.98051
33.00 0.96910
33.50 0.95733
34.00 0.94408
34.50 0.93088
35.00 0.91852
35.50 0.90701
36.00 0.89432
36.50 0.88041
37.00 0.86655
37.50 0.85318
38.00 0.84062
38.50 0.82725
39.00 0.81256
39.50 0.79774
40.00 0.78293
40.50 0.76804
41.00 0.75298
41.50 0.73694
42.00 0.72038
42.50 0.70390
43.00 0.68698
43.50 0.66943
44.00 0.65200
44.50 0.63390
45.00 0.61561
45.50 0.59682
46.00 0.57906
46.50 0.56144
47.00 0.54409
47.50 0.52873
48.00 0.51468
48.50 0.50284
49.00 0.49192
49.50 0.48249
50.00 0.47667
50.50 0.47394
51.00 0.46599
51.50 0.45804
52.00 0.45178
52.50 0.44898
53.00 0.44348
53.50 0.43359
54.00 0.42360
54.50 0.41421
55.00 0.40608
55.50 0.39459
56.00 0.37805
56.50 0.36136
57.00 0.34468
57.50 0.32791
58.00 0.30850
58.50 0.28635
59.00 0.26344
59.50 0.23482
60.00 0.20607
60.50 0.18388
61.00 0.16349
61.50 0.14259
62.00 0.11811
62.50 0.09802
63.00 0.08210
63.50 0.07065
64.00 0.05936
64.50 0.04876
65.00 0.04148
65.50 0.03418
66.00 0.02822
66.50 0.02324
67.00 0.02006
67.50 0.01687
68.00 0.01368
68.50 0.01151
69.00 0.00989
69.50 0.00826
70.00 0.00662
70.50 0.00577
71.00 0.00492
71.50 0.00404
72.00 0.00336
72.50 0.00292
73.00 0.00248
73.50 0.00203
74.00 0.00181
74.50 0.00159
75.00 0.00137
75.50 0.00118
76.00 0.00107
76.50 0.00098
77.00 0.00090
77.50 0.00082
78.00 0.00076
78.50 0.00071
79.00 0.00066
79.50 0.00063
80.00 0.00060
80.50 0.00056
81.00 0.00053
81.50 0.00050
82.00 0.00047
82.50 0.00044
83.00 0.00042
83.50 0.00039
84.00 0.00036
84.50 0.00033
85.00 0.00031
85.50 0.00028
86.00 0.00025
86.50 0.00023
87.00 0.00020
87.50 0.00018
88.00 0.00016
88.50 0.00013
89.00 0.00012
89.50 0.00011
90.00 0.00010
90.00 0.00010
90.50 0.00011
91.00 0.00012
91.50 0.00013
92.00 0.00016
92.50 0.00018
93.00 0.00020
93.50 0.00023
94.00 0.00025
94.50 0.00028
95.00 0.00031
95.50 0.00033
96.00 0.00036
96.50 0.00039
97.00 0.00042
97.50 0.00044
98.00 0.00047
98.50 0.00050
99.00 0.00053
99.50 0.00056
100.00 0.00060
100.50 0.00063
101.00 0.00066
101.50 0.00071
102.00 0.00076
102.50 0.00082
103.00 0.00090
103.50 0.00098
104.00 0.00107
104.50 0.00118
105.00 0.00137
105.50 0.00159
106.00 0.00181
106.50 0.00203
107.00 0.00248
107.50 0.00292
108.00 0.00336
108.50 0.00404
109.00 0.00492
109.50 0.00577
110.00 0.00662
110.50 0.00826
111.00 0.00989
111.50 0.01151
112.00 0.01368
112.50 0.01687
113.00 0.02006
113.50 0.02324
114.00 0.02822
114.50 0.03418
115.00 0.04148
115.50 0.04876
116.00 0.05936
116.50 0.07065
117.00 0.08210
117.50 0.09802
118.00 0.11811
118.50 0.14259
119.00 0.16349
119.50 0.18388
120.00 0.20607
120.50 0.23482
121.00 0.26344
121.50 0.28635
122.00 0.30850
122.50 0.32791
123.00 0.34468
123.50 0.36136
124.00 0.37805
124.50 0.39459
125.00 0.40608
125.50 0.41421
126.00 0.42360
126.50 0.43359
127.00 0.44348
127.50 0.44898
128.00 0.45178
128.50 0.45804
129.00 0.46599
129.50 0.47394
130.00 0.47667
130.50 0.48249
131.00 0.49192
131.50 0.50284
132.00 0.51468
132.50 0.52873
133.00 0.54409
133.50 0.56144
134.00 0.57906
134.50 0.59682
135.00 0.61561
135.50 0.63390
136.00 0.65200
136.50 0.66943
137.00 0.68698
137.50 0.70390
138.00 0.72038
138.50 0.73694
139.00 0.75298
139.50 0.76804
140.00 0.78293
140.50 0.79774
141.00 0.81256
141.50 0.82725
142.00 0.84062
142.50 0.85318
143.00 0.86655
143.50 0.88041
144.00 0.89432
144.50 0.90701
145.00 0.91852
145.50 0.93088
146.00 0.94408
146.50 0.95733
147.00 0.96910
147.50 0.98051
148.00 0.99328
148.50 1.00666
149.00 1.02010
149.50 1.03314
150.00 1.04626
150.50 1.06069
151.00 1.07509
151.50 1.08955
152.00 1.10409
152.50 1.12036
153.00 1.13693
153.50 1.15145
154.00 1.16521
154.50 1.17925
155.00 1.19512
155.50 1.20906
156.00 1.21695
156.50 1.22483
157.00 1.23274
157.50 1.24066
158.00 1.23907
158.50 1.24198
159.00 1.24525
159.50 1.24857
160.00 1.25030
160.50 1.24918
161.00 1.24851
161.50 1.25018
162.00 1.25193
162.50 1.25325
163.00 1.25431
163.50 1.25569
164.00 1.25766
164.50 1.25972
165.00 1.26269
165.50 1.26590
166.00 1.26832
166.50 1.26988
167.00 1.27156
167.50 1.27348
168.00 1.27547
168.50 1.27504
169.00 1.27416
169.50 1.27328
170.00 1.27070
170.50 1.26777
171.00 1.26444
171.50 1.26280
172.00 1.26137
172.50 1.26001
173.00 1.25853
173.50 1.25715
174.00 1.25661
174.50 1.25641
175.00 1.25687
175.50 1.25806
176.00 1.25935
176.50 1.26029
177.00 1.26138
177.50 1.26311
178.00 1.26494
178.50 1.26688
179.00 1.26805
179.50 1.26924
180.00 1.27052
180.00 1.27052
180.50 1.26924
181.00 1.26805
181.50 1.26688
182.00 1.26494
182.50 1.26311
183.00 1.26138
183.50 1.26029
184.00 1.25935
184.50 1.25806
185.00 1.25687
185.50 1.25641
186.00 1.25661
186.50 1.25715
187.00 1.25853
187.50 1.26001
188.00 1.26137
188.50 1.26280
189.00 1.26444
189.50 1.26777
190.00 1.27070
190.50 1.27328
191.00 1.27416
191.50 1.27504
192.00 1.27547
192.50 1.27348
193.00 1.27156
193.50 1.26988
194.00 1.26832
194.50 1.26590
195.00 1.26269
195.50 1.25972
196.00 1.25766
196.50 1.25569
197.00 1.25431
197.50 1.25325
198.00 1.25193
198.50 1.25018
199.00 1.24851
199.50 1.24918
200.00 1.25030
200.50 1.24857
201.00 1.24525
201.50 1.24198
202.00 1.23907
202.50 1.24066
203.00 1.23274
203.50 1.22483
204.00 1.21695
204.50 1.20906
205.00 1.19512
205.50 1.17925
206.00 1.16521
206.50 1.15145
207.00 1.13693
207.50 1.12036
208.00 1.10409
208.50 1.08955
209.00 1.07509
209.50 1.06069
210.00 1.04626
210.50 1.03314
211.00 1.02010
211.50 1.00666
212.00 0.99328
212.50 0.98051
213.00 0.96910
213.50 0.95733
214.00 0.94408
214.50 0.93088
215.00 0.91852
215.50 0.90701
216.00 0.89432
216.50 0.88041
217.00 0.86655
217.50 0.85318
218.00 0.84062
218.50 0.82725
219.00 0.81256
219.50 0.79774
220.00 0.78293
220.50 0.76804
221.00 0.75298
221.50 0.73694
222.00 0.72038
222.50 0.70390
223.00 0.68698
223.50 0.66943
224.00 0.65200
224.50 0.63390
225.00 0.61561
225.50 0.59682
226.00 0.57906
226.50 0.56144
227.00 0.54409
227.50 0.52873
228.00 0.51468
228.50 0.50284
229.00 0.49192
229.50 0.48249
230.00 0.47667
230.50 0.47394
231.00 0.46599
231.50 0.45804
232.00 0.45178
232.50 0.44898
233.00 0.44348
233.50 0.43359
234.00 0.42360
234.50 0.41421
235.00 0.40608
235.50 0.39459
236.00 0.37805
236.50 0.36136
237.00 0.34468
237.50 0.32791
238.00 0.30850
238.50 0.28635
239.00 0.26344
239.50 0.23482
240.00 0.20607
240.50 0.18388
241.00 0.16349
241.50 0.14259
242.00 0.11811
242.50 0.09802
243.00 0.08210
243.50 0.07065
244.00 0.05936
244.50 0.04876
245.00 0.04148
245.50 0.03418
246.00 0.02822
246.50 0.02324
247.00 0.02006
247.50 0.01687
248.00 0.01368
248.50 0.01151
249.00 0.00989
249.50 0.00826
250.00 0.00662
250.50 0.00577
251.00 0.00492
251.50 0.00404
252.00 0.00336
252.50 0.00292
253.00 0.00248
253.50 0.00203
254.00 0.00181
254.50 0.00159
255.00 0.00137
255.50 0.00118
256.00 0.00107
256.50 0.00098
257.00 0.00090
257.50 0.00082
258.00 0.00076
258.50 0.00071
259.00 0.00066
259.50 0.00063
260.00 0.00060
260.50 0.00056
261.00 0.00053
261.50 0.00050
262.00 0.00047
262.50 0.00044
263.00 0.00042
263.50 0.00039
264.00 0.00036
264.50 0.00033
265.00 0.00031
265.50 0.00028
266.00 0.00025
266.50 0.00023
267.00 0.00020
267.50 0.00018
268.00 0.00016
268.50 0.00013
269.00 0.00012
269.50 0.00011
270.00 0.00010
270.00 0.00010
270.50 0.00011
271.00 0.00012
271.50 0.00013
272.00 0.00016
272.50 0.00018
273.00 0.00020
273.50 0.00023
274.00 0.00025
274.50 0.00028
275.00 0.00031
275.50 0.00033
276.00 0.00036
276.50 0.00039
277.00 0.00042
277.50 0.00044
278.00 0.00047
278.50 0.00050
279.00 0.00053
279.50 0.00056
280.00 0.00060
280.50 0.00063
281.00 0.00066
281.50 0.00071
282.00 0.00076
282.50 0.00082
283.00 0.00090
283.50 0.00098
284.00 0.00107
284.50 0.00118
285.00 0.00137
285.50 0.00159
286.00 0.00181
286.50 0.00203
287.00 0.00248
287.50 0.00292
288.00 0.00336
288.50 0.00404
289.00 0.00492
289.50 0.00577
290.00 0.00662
290.50 0.00826
291.00 0.00989
291.50 0.01151
292.00 0.01368
292.50 0.01687
293.00 0.02006
293.50 0.02324
294.00 0.02822
294.50 0.03418
295.00 0.04148
295.50 0.04876
296.00 0.05936
296.50 0.07065
297.00 0.08210
297.50 0.09802
298.00 0.11811
298.50 0.14259
299.00 0.16349
299.50 0.18388
300.00 0.20607
300.50 0.23482
301.00 0.26344
301.50 0.28635
302.00 0.30850
302.50 0.32791
303.00 0.34468
303.50 0.36136
304.00 0.37805
304.50 0.39459
305.00 0.40608
305.50 0.41421
306.00 0.42360
306.50 0.43359
307.00 0.44348
307.50 0.44898
308.00 0.45178
308.50 0.45804
309.00 0.46599
309.50 0.47394
310.00 0.47667
310.50 0.48249
311.00 0.49192
311.50 0.50284
312.00 0.51468
312.50 0.52873
313.00 0.54409
313.50 0.56144
314.00 0.57906
314.50 0.59682
315.00 0.61561
315.50 0.63390
316.00 0.65200
316.50 0.66943
317.00 0.68698
317.50 0.70390
318.00 0.72038
318.50 0.73694
319.00 0.75298
319.50 0.76804
320.00 0.78293
320.50 0.79774
321.00 0.81256
321.50 0.82725
322.00 0.84062
322.50 0.85318
323.00 0.86655
323.50 0.88041
324.00 0.89432
324.50 0.90701
325.00 0.91852
325.50 0.93088
326.00 0.94408
326.50 0.95733
327.00 0.96910
327.50 0.98051
328.00 0.99328
328.50 1.00666
329.00 1.02010
329.50 1.03314
330.00 1.04626
330.50 1.06069
331.00 1.07509
331.50 1.08955
332.00 1.10409
332.50 1.12036
333.00 1.13693
333.50 1.15145
334.00 1.16521
334.50 1.17925
335.00 1.19512
335.50 1.20906
336.00 1.21695
336.50 1.22483
337.00 1.23274
337.50 1.24066
338.00 1.23907
338.50 1.24198
339.00 1.24525
339.50 1.24857
340.00 1.25030
340.50 1.24918
341.00 1.24851
341.50 1.25018
342.00 1.25193
342.50 1.25325
343.00 1.25431
343.50 1.25569
344.00 1.25766
344.50 1.25972
345.00 1.26269
345.50 1.26590
346.00 1.26832
346.50 1.26988
347.00 1.27156
347.50 1.27348
348.00 1.27547
348.50 1.27504
349.00 1.27416
349.50 1.27328
350.00 1.27070
350.50 1.26777
351.00 1.26444
351.50 1.26280
352.00 1.26137
352.50 1.26001
353.00 1.25853
353.50 1.25715
354.00 1.25661
354.50 1.25641
355.00 1.25687
355.50 1.25806
356.00 1.25935
356.50 1.26029
357.00 1.26138
357.50 1.26311
358.00 1.26494
358.50 1.26688
359.00 1.26805
359.50 1.26924
360.00 1.27052
