phi[deg] B[T]
0.00 1.98599
0.50 1.98596
1.00 1.98609
1.50 1.98637
2.00 1.98680
2.50 1.98744
3.00 1.98765
3.50 1.98874
4.00 1.98996
4.50 1.99133
5.00 1.99283
5.50 1.99447
6.00 1.99639
6.50 1.99845
7.00 2.00064
7.50 2.00132
8.00 2.00198
8.50 2.00309
9.00 2.00475
9.50 2.00654
10.00 2.00845
10.50 2.00781
11.00 2.00638
11.50 2.00554
12.00 2.00509
12.50 2.00473
13.00 2.00449
13.50 2.00412
14.00 2.00244
14.50 1.99987
15.00 1.99477
15.50 1.99031
16.00 1.98749
16.50 1.98475
17.00 1.98208
17.50 1.97843
18.00 1.97162
18.50 1.96487
19.00 1.95843
19.50 1.95412
20.00 1.94984
20.50 1.94396
21.00 1.93555
21.50 1.92720
22.00 1.91774
22.50 1.90690
23.00 1.89609
23.50 1.88530
24.00 1.87172
24.50 1.85753
25.00 1.84337
25.50 1.82909
26.00 1.81214
26.50 1.79576
27.00 1.77957
27.50 1.76341
28.00 1.74625
28.50 1.72784
29.00 1.70929
29.50 1.68987
30.00 1.67046
30.50 1.65107
31.00 1.62969
31.50 1.60724
32.00 1.58705
32.50 1.56686
33.00 1.54667
33.50 1.52514
34.00 1.50188
34.50 1.47861
35.00 1.45448
35.50 1.42941
36.00 1.40434
36.50 1.37928
37.00 1.35392
37.50 1.32787
38.00 1.30230
38.50 1.27675
39.00 1.25119
39.50 1.22546
40.00 1.19956
40.50 1.17466
41.00 1.14976
41.50 1.12485
42.00 1.09959
42.50 1.07534
43.00 1.05175
43.50 1.02827
44.00 1.00504
44.50 0.98182
45.00 0.95837
45.50 0.93587
46.00 0.91389
46.50 0.89188
47.00 0.87066
47.50 0.85010
48.00 0.82844
48.50 0.80596
49.00 0.78565
49.50 0.76564
50.00 0.74528
50.50 0.72372
51.00 0.70433
51.50 0.68489
52.00 0.66539
52.50 0.64573
53.00 0.62308
53.50 0.60216
54.00 0.58200
54.50 0.56176
55.00 0.54146
55.50 0.52086
56.00 0.49833
56.50 0.47790
57.00 0.45738
57.50 0.43677
58.00 0.41615
58.50 0.39632
59.00 0.37642
59.50 0.35445
60.00 0.33241
60.50 0.31031
61.00 0.28814
61.50 0.26641
62.00 0.25024
62.50 0.23425
63.00 0.21820
63.50 0.20210
64.00 0.18595
64.50 0.16900
65.00 0.15787
65.50 0.14696
66.00 0.13603
66.50 0.12505
67.00 0.11395
67.50 0.10284
68.00 0.09400
68.50 0.08788
69.00 0.08175
69.50 0.07561
70.00 0.06937
70.50 0.06311
71.00 0.05685
71.50 0.05097
72.00 0.04733
72.50 0.04393
73.00 0.04053
73.50 0.03714
74.00 0.03375
74.50 0.03037
75.00 0.02794
75.50 0.02606
76.00 0.02419
76.50 0.02232
77.00 0.02045
77.50 0.01851
78.00 0.01657
78.50 0.01531
79.00 0.01431
79.50 0.01331
80.00 0.01231
80.50 0.01131
81.00 0.01031
81.50 0.00934
82.00 0.00864
82.50 0.00806
83.00 0.00752
83.50 0.00698
84.00 0.00644
84.50 0.00595
85.00 0.00567
85.50 0.00538
86.00 0.00509
86.50 0.00480
87.00 0.00450
87.50 0.00439
88.00 0.00428
88.50 0.00416
89.00 0.00404
89.50 0.00392
90.00 0.00380
90.00 0.00380
90.50 0.00392
91.00 0.00404
91.50 0.00416
92.00 0.00428
92.50 0.00439
93.00 0.00450
93.50 0.00480
94.00 0.00509
94.50 0.00538
95.00 0.00567
95.50 0.00595
96.00 0.00644
96.50 0.00698
97.00 0.00752
97.50 0.00806
98.00 0.00864
98.50 0.00934
99.00 0.01031
99.50 0.01131
100.00 0.01231
100.50 0.01331
101.00 0.01431
101.50 0.01531
102.00 0.01657
102.50 0.01851
103.00 0.02045
103.50 0.02232
104.00 0.02419
104.50 0.02606
105.00 0.02794
105.50 0.03037
106.00 0.03375
106.50 0.03714
107.00 0.04053
107.50 0.04393
108.00 0.04733
108.50 0.05097
109.00 0.05685
109.50 0.06311
110.00 0.06937
110.50 0.07561
111.00 0.08175
111.50 0.08788
112.00 0.09400
112.50 0.10284
113.00 0.11395
113.50 0.12505
114.00 0.13603
114.50 0.14696
115.00 0.15787
115.50 0.16900
116.00 0.18595
116.50 0.20210
117.00 0.21820
117.50 0.23425
118.00 0.25024
118.50 0.26641
119.00 0.28814
119.50 0.31031
120.00 0.33241
120.50 0.35445
121.00 0.37642
121.50 0.39632
122.00 0.41615
122.50 0.43677
123.00 0.45738
123.50 0.47790
124.00 0.49833
124.50 0.52086
125.00 0.54146
125.50 0.56176
126.00 0.58200
126.50 0.60216
127.00 0.62308
127.50 0.64573
128.00 0.66539
128.50 0.68489
129.00 0.70433
129.50 0.72372
130.00 0.74528
130.50 0.76564
131.00 0.78565
131.50 0.80596
132.00 0.82844
132.50 0.85010
133.00 0.87066
133.50 0.89188
134.00 0.91389
134.50 0.93587
135.00 0.95837
135.50 0.98182
136.00 1.00504
136.50 1.02827
137.00 1.05175
137.50 1.07534
138.00 1.09959
138.50 1.12485
139.00 1.14976
139.50 1.17466
140.00 1.19956
140.50 1.22546
141.00 1.25119
141.50 1.27675
142.00 1.30230
142.50 1.32787
143.00 1.35392
143.50 1.37928
144.00 1.40434
144.50 1.42941
145.00 1.45448
145.50 1.47861
146.00 1.50188
146.50 1.52514
147.00 1.54667
147.50 1.56686
148.00 1.58705
148.50 1.60724
149.00 1.62969
149.50 1.65107
150.00 1.67046
150.50 1.68987
151.00 1.70929
151.50 1.72784
152.00 1.74625
152.50 1.76341
153.00 1.77957
153.50 1.79576
154.00 1.81214
154.50 1.82909
155.00 1.84337
155.50 1.85753
156.00 1.87172
156.50 1.88530
157.00 1.89609
157.50 1.90690
158.00 1.91774
158.50 1.92720
159.00 1.93555
159.50 1.94396
160.00 1.94984
160.50 1.95412
161.00 1.95843
161.50 1.96487
162.00 1.97162
162.50 1.97843
163.00 1.98208
163.50 1.98475
164.00 1.98749
164.50 1.99031
165.00 1.99477
165.50 1.99987
166.00 2.00244
166.50 2.00412
167.00 2.00449
167.50 2.00473
168.00 2.00509
168.50 2.00554
169.00 2.00638
169.50 2.00781
170.00 2.00845
170.50 2.00654
171.00 2.00475
171.50 2.00309
172.00 2.00198
172.50 2.00132
173.00 2.00064
173.50 1.99845
174.00 1.99639
174.50 1.99447
175.00 1.99283
175.50 1.99133
176.00 1.98996
176.50 1.98874
177.00 1.98765
177.50 1.98744
178.00 1.98680
178.50 1.98637
179.00 1.98609
179.50 1.98596
180.00 1.98599
180.00 1.98599
180.50 1.98596
181.00 1.98609
181.50 1.98637
182.00 1.98680
182.50 1.98744
183.00 1.98765
183.50 1.98874
184.00 1.98996
184.50 1.99133
185.00 1.99283
185.50 1.99447
186.00 1.99639
186.50 1.99845
187.00 2.00064
187.50 2.00132
188.00 2.00198
188.50 2.00309
189.00 2.00475
189.50 2.00654
190.00 2.00845
190.50 2.00781
191.00 2.00638
191.50 2.00554
192.00 2.00509
192.50 2.00473
193.00 2.00449
193.50 2.00412
194.00 2.00244
194.50 1.99987
195.00 1.99477
195.50 1.99031
196.00 1.98749
196.50 1.98475
197.00 1.98208
197.50 1.97843
198.00 1.97162
198.50 1.96487
199.00 1.95843
199.50 1.95412
200.00 1.94984
200.50 1.94396
201.00 1.93555
201.50 1.92720
202.00 1.91774
202.50 1.90690
203.00 1.89609
203.50 1.88530
204.00 1.87172
204.50 1.85753
205.00 1.84337
205.50 1.82909
206.00 1.81214
206.50 1.79576
207.00 1.77957
207.50 1.76341
208.00 1.74625
208.50 1.72784
209.00 1.70929
209.50 1.68987
210.00 1.67046
210.50 1.65107
211.00 1.62969
211.50 1.60724
212.00 1.58705
212.50 1.56686
213.00 1.54667
213.50 1.52514
214.00 1.50188
214.50 1.47861
215.00 1.45448
215.50 1.42941
216.00 1.40434
216.50 1.37928
217.00 1.35392
217.50 1.32787
218.00 1.30230
218.50 1.27675
219.00 1.25119
219.50 1.22546
220.00 1.19956
220.50 1.17466
221.00 1.14976
221.50 1.12485
222.00 1.09959
222.50 1.07534
223.00 1.05175
223.50 1.02827
224.00 1.00504
224.50 0.98182
225.00 0.95837
225.50 0.93587
226.00 0.91389
226.50 0.89188
227.00 0.87066
227.50 0.85010
228.00 0.82844
228.50 0.80596
229.00 0.78565
229.50 0.76564
230.00 0.74528
230.50 0.72372
231.00 0.70433
231.50 0.68489
232.00 0.66539
232.50 0.64573
233.00 0.62308
233.50 0.60216
234.00 0.58200
234.50 0.56176
235.00 0.54146
235.50 0.52086
236.00 0.49833
236.50 0.47790
237.00 0.45738
237.50 0.43677
238.00 0.41615
238.50 0.39632
239.00 0.37642
239.50 0.35445
240.00 0.33241
240.50 0.31031
241.00 0.28814
241.50 0.26641
242.00 0.25024
242.50 0.23425
243.00 0.21820
243.50 0.20210
244.00 0.18595
244.50 0.16900
245.00 0.15787
245.50 0.14696
246.00 0.13603
246.50 0.12505
247.00 0.11395
247.50 0.10284
248.00 0.09400
248.50 0.08788
249.00 0.08175
249.50 0.07561
250.00 0.06937
250.50 0.06311
251.00 0.05685
251.50 0.05097
252.00 0.04733
252.50 0.04393
253.00 0.04053
253.50 0.03714
254.00 0.03375
254.50 0.03037
255.00 0.02794
255.50 0.02606
256.00 0.02419
256.50 0.02232
257.00 0.02045
257.50 0.01851
258.00 0.01657
258.50 0.01531
259.00 0.01431
259.50 0.01331
260.00 0.01231
260.50 0.01131
261.00 0.01031
261.50 0.00934
262.00 0.00864
262.50 0.00806
263.00 0.00752
263.50 0.00698
264.00 0.00644
264.50 0.00595
265.00 0.00567
265.50 0.00538
266.00 0.00509
266.50 0.00480
267.00 0.00450
267.50 0.00439
268.00 0.00428
268.50 0.00416
269.00 0.00404
269.50 0.00392
270.00 0.00380
270.00 0.00380
270.50 0.00392
271.00 0.00404
271.50 0.00416
272.00 0.00428
272.50 0.00439
273.00 0.00450
273.50 0.00480
274.00 0.00509
274.50 0.00538
275.00 0.00567
275.50 0.00595
276.00 0.00644
276.50 0.00698
277.00 0.00752
277.50 0.00806
278.00 0.00864
278.50 0.00934
279.00 0.01031
279.50 0.01131
280.00 0.01231
280.50 0.01331
281.00 0.01431
281.50 0.01531
282.00 0.01657
282.50 0.01851
283.00 0.02045
283.50 0.02232
284.00 0.02419
284.50 0.02606
285.00 0.02794
285.50 0.03037
286.00 0.03375
286.50 0.03714
287.00 0.04053
287.50 0.04393
288.00 0.04733
288.50 0.05097
289.00 0.05685
289.50 0.06311
290.00 0.06937
290.50 0.07561
291.00 0.08175
291.50 0.08788
292.00 0.09400
292.50 0.10284
293.00 0.11395
293.50 0.12505
294.00 0.13603
294.50 0.14696
295.00 0.15787
295.50 0.16900
296.00 0.18595
296.50 0.20210
297.00 0.21820
297.50 0.23425
298.00 0.25024
298.50 0.26641
299.00 0.28814
299.50 0.31031
300.00 0.33241
300.50 0.35445
301.00 0.37642
301.50 0.39632
302.00 0.41615
302.50 0.43677
303.00 0.45738
303.50 0.47790
304.00 0.49833
304.50 0.52086
305.00 0.54146
305.50 0.56176
306.00 0.58200
306.50 0.60216
307.00 0.62308
307.50 0.64573
308.00 0.66539
308.50 0.68489
309.00 0.70433
309.50 0.72372
310.00 0.74528
310.50 0.76564
311.00 0.78565
311.50 0.80596
312.00 0.82844
312.50 0.85010
313.00 0.87066
313.50 0.89188
314.00 0.91389
314.50 0.93587
315.00 0.95837
315.50 0.98182
316.00 1.00504
316.50 1.02827
317.00 1.05175
317.50 1.07534
318.00 1.09959
318.50 1.12485
319.00 1.14976
319.50 1.17466
320.00 1.19956
320.50 1.22546
321.00 1.25119
321.50 1.27675
322.00 1.30230
322.50 1.32787
323.00 1.35392
323.50 1.37928
324.00 1.40434
324.50 1.42941
325.00 1.45448
325.50 1.47861
326.00 1.50188
326.50 1.52514
327.00 1.54667
327.50 1.56686
328.00 1.58705
328.50 1.60724
329.00 1.62969
329.50 1.65107
330.00 1.67046
330.50 1.68987
331.00 1.70929
331.50 1.72784
332.00 1.74625
332.50 1.76341
333.00 1.77957
333.50 1.79576
334.00 1.81214
334.50 1.82909
335.00 1.84337
335.50 1.85753
336.00 1.87172
336.50 1.88530
337.00 1.89609
337.50 1.90690
338.00 1.91774
338.50 1.92720
339.00 1.93555
339.50 1.94396
340.00 1.94984
340.50 1.95412
341.00 1.95843
341.50 1.96487
342.00 1.97162
342.50 1.97843
343.00 1.98208
343.50 1.98475
344.00 1.98749
344.50 1.99031
345.00 1.99477
345.50 1.99987
346.00 2.00244
346.50 2.00412
347.00 2.00449
347.50 2.00473
348.00 2.00509
348.50 2.00554
349.00 2.00638
349.50 2.00781
350.00 2.00845
350.50 2.00654
351.00 2.00475
351.50 2.00309
352.00 2.00198
352.50 2.00132
353.00 2.00064
353.50 1.99845
354.00 1.99639
354.50 1.99447
355.00 1.99283
355.50 1.99133
356.00 1.98996
356.50 1.98874
357.00 1.98765
357.50 1.98744
358.00 1.98680
358.50 1.98637
359.00 1.98609
359.50 1.98596
360.00 1.98599
