phi[deg] B[T]
0.00 1.55959
0.50 1.55935
1.00 1.55924
1.50 1.55926
2.00 1.55939
2.50 1.55970
3.00 1.56022
3.50 1.56085
4.00 1.56161
4.50 1.56250
5.00 1.56381
5.50 1.56541
6.00 1.56713
6.50 1.56822
7.00 1.56943
7.50 1.57075
8.00 1.57279
8.50 1.57498
9.00 1.57727
9.50 1.57848
10.00 1.57870
10.50 1.57914
11.00 1.58119
11.50 1.58332
12.00 1.58437
12.50 1.58431
13.00 1.58328
13.50 1.58170
14.00 1.58020
14.50 1.57877
15.00 1.57741
15.50 1.57614
16.00 1.57493
16.50 1.57377
17.00 1.57293
17.50 1.56947
18.00 1.56576
18.50 1.56209
19.00 1.55848
19.50 1.55491
20.00 1.55140
20.50 1.54871
21.00 1.54774
21.50 1.54227
22.00 1.53422
22.50 1.52616
23.00 1.51788
23.50 1.50963
24.00 1.50139
24.50 1.49110
25.00 1.47851
25.50 1.46596
26.00 1.45291
26.50 1.43848
27.00 1.42409
27.50 1.40998
28.00 1.39591
28.50 1.38165
29.00 1.36687
29.50 1.35206
30.00 1.33564
30.50 1.31925
31.00 1.30289
31.50 1.28656
32.00 1.27058
32.50 1.25601
33.00 1.24148
33.50 1.22368
34.00 1.20493
34.50 1.18618
35.00 1.16744
35.50 1.14826
36.00 1.12900
36.50 1.10967
37.00 1.09034
37.50 1.07082
38.00 1.04998
38.50 1.02916
39.00 1.00840
39.50 0.98828
40.00 0.96841
40.50 0.94867
41.00 0.92923
41.50 0.90982
42.00 0.89097
42.50 0.87263
43.00 0.85426
43.50 0.83590
44.00 0.81796
44.50 0.80017
45.00 0.78233
45.50 0.76488
46.00 0.74753
46.50 0.73018
47.00 0.71297
47.50 0.69574
48.00 0.67770
48.50 0.66058
49.00 0.64342
49.50 0.62710
50.00 0.61120
50.50 0.59372
51.00 0.57468
51.50 0.55558
52.00 0.53904
52.50 0.52334
53.00 0.50756
53.50 0.49094
54.00 0.47356
54.50 0.45612
55.00 0.43861
55.50 0.41933
56.00 0.39992
56.50 0.38075
57.00 0.36162
57.50 0.34240
58.00 0.32311
58.50 0.30375
59.00 0.28533
59.50 0.26683
60.00 0.24750
60.50 0.22812
61.00 0.20867
61.50 0.18916
62.00 0.17508
62.50 0.16221
63.00 0.14931
63.50 0.13638
64.00 0.12328
64.50 0.10906
65.00 0.09483
65.50 0.08358
66.00 0.07639
66.50 0.06918
67.00 0.06294
67.50 0.05682
68.00 0.05071
68.50 0.04460
69.00 0.03916
69.50 0.03557
70.00 0.03197
70.50 0.02837
71.00 0.02535
71.50 0.02296
72.00 0.02056
72.50 0.01817
73.00 0.01630
73.50 0.01471
74.00 0.01312
74.50 0.01152
75.00 0.01053
75.50 0.00959
76.00 0.00865
76.50 0.00771
77.00 0.00678
77.50 0.00601
78.00 0.00525
78.50 0.00480
79.00 0.00440
79.50 0.00401
80.00 0.00363
80.50 0.00325
81.00 0.00287
81.50 0.00250
82.00 0.00225
82.50 0.00206
83.00 0.00186
83.50 0.00167
84.00 0.00151
84.50 0.00136
85.00 0.00120
85.50 0.00113
86.00 0.00105
86.50 0.00098
87.00 0.00090
87.50 0.00083
88.00 0.00080
88.50 0.00077
89.00 0.00073
89.50 0.00070
90.00 0.00067
90.00 0.00067
90.50 0.00070
91.00 0.00073
91.50 0.00077
92.00 0.00080
92.50 0.00083
93.00 0.00090
93.50 0.00098
94.00 0.00105
94.50 0.00113
95.00 0.00120
95.50 0.00136
96.00 0.00151
96.50 0.00167
97.00 0.00186
97.50 0.00206
98.00 0.00225
98.50 0.00250
99.00 0.00287
99.50 0.00325
100.00 0.00363
100.50 0.00401
101.00 0.00440
101.50 0.00480
102.00 0.00525
102.50 0.00601
103.00 0.00678
103.50 0.00771
104.00 0.00865
104.50 0.00959
105.00 0.01053
105.50 0.01152
106.00 0.01312
106.50 0.01471
107.00 0.01630
107.50 0.01817
108.00 0.02056
108.50 0.02296
109.00 0.02535
109.50 0.02837
110.00 0.03197
110.50 0.03557
111.00 0.03916
111.50 0.04460
112.00 0.05071
112.50 0.05682
113.00 0.06294
113.50 0.06918
114.00 0.07639
114.50 0.08358
115.00 0.09483
115.50 0.10906
116.00 0.12328
116.50 0.13638
117.00 0.14931
117.50 0.16221
118.00 0.17508
118.50 0.18916
119.00 0.20867
119.50 0.22812
120.00 0.24750
120.50 0.26683
121.00 0.28533
121.50 0.30375
122.00 0.32311
122.50 0.34240
123.00 0.36162
123.50 0.38075
124.00 0.39992
124.50 0.41933
125.00 0.43861
125.50 0.45612
126.00 0.47356
126.50 0.49094
127.00 0.50756
127.50 0.52334
128.00 0.53904
128.50 0.55558
129.00 0.57468
129.50 0.59372
130.00 0.61120
130.50 0.62710
131.00 0.64342
131.50 0.66058
132.00 0.67770
132.50 0.69574
133.00 0.71297
133.50 0.73018
134.00 0.74753
134.50 0.76488
135.00 0.78233
135.50 0.80017
136.00 0.81796
136.50 0.83590
137.00 0.85426
137.50 0.87263
138.00 0.89097
138.50 0.90982
139.00 0.92923
139.50 0.94867
140.00 0.96841
140.50 0.98828
141.00 1.00840
141.50 1.02916
142.00 1.04998
142.50 1.07082
143.00 1.09034
143.50 1.10967
144.00 1.12900
144.50 1.14826
145.00 1.16744
145.50 1.18618
146.00 1.20493
146.50 1.22368
147.00 1.24148
147.50 1.25601
148.00 1.27058
148.50 1.28656
149.00 1.30289
149.50 1.31925
150.00 1.33564
150.50 1.35206
151.00 1.36687
151.50 1.38165
152.00 1.39591
152.50 1.40998
153.00 1.42409
153.50 1.43848
154.00 1.45291
154.50 1.46596
155.00 1.47851
155.50 1.49110
156.00 1.50139
156.50 1.50963
157.00 1.51788
157.50 1.52616
158.00 1.53422
158.50 1.54227
159.00 1.54774
159.50 1.54871
160.00 1.55140
160.50 1.55491
161.00 1.55848
161.50 1.56209
162.00 1.56576
162.50 1.56947
163.00 1.57293
163.50 1.57377
164.00 1.57493
164.50 1.57614
165.00 1.57741
165.50 1.57877
166.00 1.58020
166.50 1.58170
167.00 1.58328
167.50 1.58431
168.00 1.58437
168.50 1.58332
169.00 1.58119
169.50 1.57914
170.00 1.57870
170.50 1.57848
171.00 1.57727
171.50 1.57498
172.00 1.57279
172.50 1.57075
173.00 1.56943
173.50 1.56822
174.00 1.56713
174.50 1.56541
175.00 1.56381
175.50 1.56250
176.00 1.56161
176.50 1.56085
177.00 1.56022
177.50 1.55970
178.00 1.55939
178.50 1.55926
179.00 1.55924
179.50 1.55935
180.00 1.55959
180.00 1.55959
180.50 1.55935
181.00 1.55924
181.50 1.55926
182.00 1.55939
182.50 1.55970
183.00 1.56022
183.50 1.56085
184.00 1.56161
184.50 1.56250
185.00 1.56381
185.50 1.56541
186.00 1.56713
186.50 1.56822
187.00 1.56943
187.50 1.57075
188.00 1.57279
188.50 1.57498
189.00 1.57727
189.50 1.57848
190.00 1.57870
190.50 1.57914
191.00 1.58119
191.50 1.58332
192.00 1.58437
192.50 1.58431
193.00 1.58328
193.50 1.58170
194.00 1.58020
194.50 1.57877
195.00 1.57741
195.50 1.57614
196.00 1.57493
196.50 1.57377
197.00 1.57293
197.50 1.56947
198.00 1.56576
198.50 1.56209
199.00 1.55848
199.50 1.55491
200.00 1.55140
200.50 1.54871
201.00 1.54774
201.50 1.54227
202.00 1.53422
202.50 1.52616
203.00 1.51788
203.50 1.50963
204.00 1.50139
204.50 1.49110
205.00 1.47851
205.50 1.46596
206.00 1.45291
206.50 1.43848
207.00 1.42409
207.50 1.40998
208.00 1.39591
208.50 1.38165
209.00 1.36687
209.50 1.35206
210.00 1.33564
210.50 1.31925
211.00 1.30289
211.50 1.28656
212.00 1.27058
212.50 1.25601
213.00 1.24148
213.50 1.22368
214.00 1.20493
214.50 1.18618
215.00 1.16744
215.50 1.14826
216.00 1.12900
216.50 1.10967
217.00 1.09034
217.50 1.07082
218.00 1.04998
218.50 1.02916
219.00 1.00840
219.50 0.98828
220.00 0.96841
220.50 0.94867
221.00 0.92923
221.50 0.90982
222.00 0.89097
222.50 0.87263
223.00 0.85426
223.50 0.83590
224.00 0.81796
224.50 0.80017
225.00 0.78233
225.50 0.76488
226.00 0.74753
226.50 0.73018
227.00 0.71297
227.50 0.69574
228.00 0.67770
228.50 0.66058
229.00 0.64342
229.50 0.62710
230.00 0.61120
230.50 0.59372
231.00 0.57468
231.50 0.55558
232.00 0.53904
232.50 0.52334
233.00 0.50756
233.50 0.49094
234.00 0.47356
234.50 0.45612
235.00 0.43861
235.50 0.41933
236.00 0.39992
236.50 0.38075
237.00 0.36162
237.50 0.34240
238.00 0.32311
238.50 0.30375
239.00 0.28533
239.50 0.26683
240.00 0.24750
240.50 0.22812
241.00 0.20867
241.50 0.18916
242.00 0.17508
242.50 0.16221
243.00 0.14931
243.50 0.13638
244.00 0.12328
244.50 0.10906
245.00 0.09483
245.50 0.08358
246.00 0.07639
246.50 0.06918
247.00 0.06294
247.50 0.05682
248.00 0.05071
248.50 0.04460
249.00 0.03916
249.50 0.03557
250.00 0.03197
250.50 0.02837
251.00 0.02535
251.50 0.02296
252.00 0.02056
252.50 0.01817
253.00 0.01630
253.50 0.01471
254.00 0.01312
254.50 0.01152
255.00 0.01053
255.50 0.00959
256.00 0.00865
256.50 0.00771
257.00 0.00678
257.50 0.00601
258.00 0.00525
258.50 0.00480
259.00 0.00440
259.50 0.00401
260.00 0.00363
260.50 0.00325
261.00 0.00287
261.50 0.00250
262.00 0.00225
262.50 0.00206
263.00 0.00186
263.50 0.00167
264.00 0.00151
264.50 0.00136
265.00 0.00120
265.50 0.00113
266.00 0.00105
266.50 0.00098
267.00 0.00090
267.50 0.00083
268.00 0.00080
268.50 0.00077
269.00 0.00073
269.50 0.00070
270.00 0.00067
270.00 0.00067
270.50 0.00070
271.00 0.00073
271.50 0.00077
272.00 0.00080
272.50 0.00083
273.00 0.00090
273.50 0.00098
274.00 0.00105
274.50 0.00113
275.00 0.00120
275.50 0.00136
276.00 0.00151
276.50 0.00167
277.00 0.00186
277.50 0.00206
278.00 0.00225
278.50 0.00250
279.00 0.00287
279.50 0.00325
280.00 0.00363
280.50 0.00401
281.00 0.00440
281.50 0.00480
282.00 0.00525
282.50 0.00601
283.00 0.00678
283.50 0.00771
284.00 0.00865
284.50 0.00959
285.00 0.01053
285.50 0.01152
286.00 0.01312
286.50 0.01471
287.00 0.01630
287.50 0.01817
288.00 0.02056
288.50 0.02296
289.00 0.02535
289.50 0.02837
290.00 0.03197
290.50 0.03557
291.00 0.03916
291.50 0.04460
292.00 0.05071
292.50 0.05682
293.00 0.06294
293.50 0.06918
294.00 0.07639
294.50 0.08358
295.00 0.09483
295.50 0.10906
296.00 0.12328
296.50 0.13638
297.00 0.14931
297.50 0.16221
298.00 0.17508
298.50 0.18916
299.00 0.20867
299.50 0.22812
300.00 0.24750
300.50 0.26683
301.00 0.28533
301.50 0.30375
302.00 0.32311
302.50 0.34240
303.00 0.36162
303.50 0.38075
304.00 0.39992
304.50 0.41933
305.00 0.43861
305.50 0.45612
306.00 0.47356
306.50 0.49094
307.00 0.50756
307.50 0.52334
308.00 0.53904
308.50 0.55558
309.00 0.57468
309.50 0.59372
310.00 0.61120
310.50 0.62710
311.00 0.64342
311.50 0.66058
312.00 0.67770
312.50 0.69574
313.00 0.71297
313.50 0.73018
314.00 0.74753
314.50 0.76488
315.00 0.78233
315.50 0.80017
316.00 0.81796
316.50 0.83590
317.00 0.85426
317.50 0.87263
318.00 0.89097
318.50 0.90982
319.00 0.92923
319.50 0.94867
320.00 0.96841
320.50 0.98828
321.00 1.00840
321.50 1.02916
322.00 1.04998
322.50 1.07082
323.00 1.09034
323.50 1.10967
324.00 1.12900
324.50 1.14826
325.00 1.16744
325.50 1.18618
326.00 1.20493
326.50 1.22368
327.00 1.24148
327.50 1.25601
328.00 1.27058
328.50 1.28656
329.00 1.30289
329.50 1.31925
330.00 1.33564
330.50 1.35206
331.00 1.36687
331.50 1.38165
332.00 1.39591
332.50 1.40998
333.00 1.42409
333.50 1.43848
334.00 1.45291
334.50 1.46596
335.00 1.47851
335.50 1.49110
336.00 1.50139
336.50 1.50963
337.00 1.51788
337.50 1.52616
338.00 1.53422
338.50 1.54227
339.00 1.54774
339.50 1.54871
340.00 1.55140
340.50 1.55491
341.00 1.55848
341.50 1.56209
342.00 1.56576
342.50 1.56947
343.00 1.57293
343.50 1.57377
344.00 1.57493
344.50 1.57614
345.00 1.57741
345.50 1.57877
346.00 1.58020
346.50 1.58170
347.00 1.58328
347.50 1.58431
348.00 1.58437
348.50 1.58332
349.00 1.58119
349.50 1.57914
350.00 1.57870
350.50 1.57848
351.00 1.57727
351.50 1.57498
352.00 1.57279
352.50 1.57075
353.00 1.56943
353.50 1.56822
354.00 1.56713
354.50 1.56541
355.00 1.56381
355.50 1.56250
356.00 1.56161
356.50 1.56085
357.00 1.56022
357.50 1.55970
358.00 1.55939
358.50 1.55926
359.00 1.55924
359.50 1.55935
360.00 1.55959
