phi[deg] B[T]
0.00 1.98441
0.50 1.98439
1.00 1.98451
1.50 1.98479
2.00 1.98523
2.50 1.98587
3.00 1.98609
3.50 1.98719
4.00 1.98842
4.50 1.98979
5.00 1.99129
5.50 1.99294
6.00 1.99487
6.50 1.99694
7.00 1.99914
7.50 1.99985
8.00 2.00052
8.50 2.00166
9.00 2.00335
9.50 2.00516
10.00 2.00710
10.50 2.00650
11.00 2.00512
11.50 2.00434
12.00 2.00394
12.50 2.00364
13.00 2.00345
13.50 2.00314
14.00 2.00152
14.50 1.99902
15.00 1.99400
15.50 1.98963
16.00 1.98689
16.50 1.98423
17.00 1.98165
17.50 1.97809
18.00 1.97137
18.50 1.96471
19.00 1.95836
19.50 1.95414
20.00 1.94996
20.50 1.94417
21.00 1.93587
21.50 1.92762
22.00 1.91826
22.50 1.90751
23.00 1.89679
23.50 1.88609
24.00 1.87261
24.50 1.85850
25.00 1.84443
25.50 1.83024
26.00 1.81337
26.50 1.79707
27.00 1.78097
27.50 1.76488
28.00 1.74780
28.50 1.72945
29.00 1.71097
29.50 1.69160
30.00 1.67224
30.50 1.65292
31.00 1.63158
31.50 1.60916
32.00 1.58901
32.50 1.56885
33.00 1.54870
33.50 1.52720
34.00 1.50396
34.50 1.48070
35.00 1.45658
35.50 1.43150
36.00 1.40643
36.50 1.38136
37.00 1.35599
37.50 1.32993
38.00 1.30435
38.50 1.27876
39.00 1.25318
39.50 1.22742
40.00 1.20149
40.50 1.17656
41.00 1.15163
41.50 1.12668
42.00 1.10139
42.50 1.07710
43.00 1.05348
43.50 1.02995
44.00 1.00668
44.50 0.98342
45.00 0.95994
45.50 0.93739
46.00 0.91537
46.50 0.89333
47.00 0.87207
47.50 0.85146
48.00 0.82977
48.50 0.80725
49.00 0.78690
49.50 0.76685
50.00 0.74646
50.50 0.72485
51.00 0.70543
51.50 0.68595
52.00 0.66642
52.50 0.64672
53.00 0.62403
53.50 0.60308
54.00 0.58288
54.50 0.56261
55.00 0.54226
55.50 0.52163
56.00 0.49907
56.50 0.47860
57.00 0.45804
57.50 0.43741
58.00 0.41675
58.50 0.39689
59.00 0.37696
59.50 0.35496
60.00 0.33289
60.50 0.31075
61.00 0.28855
61.50 0.26679
62.00 0.25060
62.50 0.23458
63.00 0.21851
63.50 0.20238
64.00 0.18621
64.50 0.16924
65.00 0.15810
65.50 0.14716
66.00 0.13623
66.50 0.12523
67.00 0.11411
67.50 0.10299
68.00 0.09413
68.50 0.08800
69.00 0.08186
69.50 0.07572
70.00 0.06946
70.50 0.06320
71.00 0.05693
71.50 0.05104
72.00 0.04739
72.50 0.04399
73.00 0.04059
73.50 0.03719
74.00 0.03380
74.50 0.03041
75.00 0.02798
75.50 0.02610
76.00 0.02422
76.50 0.02235
77.00 0.02048
77.50 0.01854
78.00 0.01659
78.50 0.01533
79.00 0.01433
79.50 0.01333
80.00 0.01233
80.50 0.01133
81.00 0.01033
81.50 0.00935
82.00 0.00865
82.50 0.00807
83.00 0.00753
83.50 0.00699
84.00 0.00645
84.50 0.00596
85.00 0.00568
85.50 0.00539
86.00 0.00510
86.50 0.00481
87.00 0.00450
87.50 0.00440
88.00 0.00429
88.50 0.00417
89.00 0.00404
89.50 0.00392
90.00 0.00381
90.00 0.00381
90.50 0.00392
91.00 0.00404
91.50 0.00417
92.00 0.00429
92.50 0.00440
93.00 0.00450
93.50 0.00481
94.00 0.00510
94.50 0.00539
95.00 0.00568
95.50 0.00596
96.00 0.00645
96.50 0.00699
97.00 0.00753
97.50 0.00807
98.00 0.00865
98.50 0.00935
99.00 0.01033
99.50 0.01133
100.00 0.01233
100.50 0.01333
101.00 0.01433
101.50 0.01533
102.00 0.01659
102.50 0.01854
103.00 0.02048
103.50 0.02235
104.00 0.02422
104.50 0.02610
105.00 0.02798
105.50 0.03041
106.00 0.03380
106.50 0.03719
107.00 0.04059
107.50 0.04399
108.00 0.04739
108.50 0.05104
109.00 0.05693
109.50 0.06320
110.00 0.06946
110.50 0.07572
111.00 0.08186
111.50 0.08800
112.00 0.09413
112.50 0.10299
113.00 0.11411
113.50 0.12523
114.00 0.13623
114.50 0.14716
115.00 0.15810
115.50 0.16924
116.00 0.18621
116.50 0.20238
117.00 0.21851
117.50 0.23458
118.00 0.25060
118.50 0.26679
119.00 0.28855
119.50 0.31075
120.00 0.33289
120.50 0.35496
121.00 0.37696
121.50 0.39689
122.00 0.41675
122.50 0.43741
123.00 0.45804
123.50 0.47860
124.00 0.49907
124.50 0.52163
125.00 0.54226
125.50 0.56261
126.00 0.58288
126.50 0.60308
127.00 0.62403
127.50 0.64672
128.00 0.66642
128.50 0.68595
129.00 0.70543
129.50 0.72485
130.00 0.74646
130.50 0.76685
131.00 0.78690
131.50 0.80725
132.00 0.82977
132.50 0.85146
133.00 0.87207
133.50 0.89333
134.00 0.91537
134.50 0.93739
135.00 0.95994
135.50 0.98342
136.00 1.00668
136.50 1.02995
137.00 1.05348
137.50 1.07710
138.00 1.10139
138.50 1.12668
139.00 1.15163
139.50 1.17656
140.00 1.20149
140.50 1.22742
141.00 1.25318
141.50 1.27876
142.00 1.30435
142.50 1.32993
143.00 1.35599
143.50 1.38136
144.00 1.40643
144.50 1.43150
145.00 1.45658
145.50 1.48070
146.00 1.50396
146.50 1.52720
147.00 1.54870
147.50 1.56885
148.00 1.58901
148.50 1.60916
149.00 1.63158
149.50 1.65292
150.00 1.67224
150.50 1.69160
151.00 1.71097
151.50 1.72945
152.00 1.74780
152.50 1.76488
153.00 1.78097
153.50 1.79707
154.00 1.81337
154.50 1.83024
155.00 1.84443
155.50 1.85850
156.00 1.87261
156.50 1.88609
157.00 1.89679
157.50 1.90751
158.00 1.91826
158.50 1.92762
159.00 1.93587
159.50 1.94417
160.00 1.94996
160.50 1.95414
161.00 1.95836
161.50 1.96471
162.00 1.97137
162.50 1.97809
163.00 1.98165
163.50 1.98423
164.00 1.98689
164.50 1.98963
165.00 1.99400
165.50 1.99902
166.00 2.00152
166.50 2.00314
167.00 2.00345
167.50 2.00364
168.00 2.00394
168.50 2.00434
169.00 2.00512
169.50 2.00650
170.00 2.00710
170.50 2.00516
171.00 2.00335
171.50 2.00166
172.00 2.00052
172.50 1.99985
173.00 1.99914
173.50 1.99694
174.00 1.99487
174.50 1.99294
175.00 1.99129
175.50 1.98979
176.00 1.98842
176.50 1.98719
177.00 1.98609
177.50 1.98587
178.00 1.98523
178.50 1.98479
179.00 1.98451
179.50 1.98439
180.00 1.98441
180.00 1.98441
180.50 1.98439
181.00 1.98451
181.50 1.98479
182.00 1.98523
182.50 1.98587
183.00 1.98609
183.50 1.98719
184.00 1.98842
184.50 1.98979
185.00 1.99129
185.50 1.99294
186.00 1.99487
186.50 1.99694
187.00 1.99914
187.50 1.99985
188.00 2.00052
188.50 2.00166
189.00 2.00335
189.50 2.00516
190.00 2.00710
190.50 2.00650
191.00 2.00512
191.50 2.00434
192.00 2.00394
192.50 2.00364
193.00 2.00345
193.50 2.00314
194.00 2.00152
194.50 1.99902
195.00 1.99400
195.50 1.98963
196.00 1.98689
196.50 1.98423
197.00 1.98165
197.50 1.97809
198.00 1.97137
198.50 1.96471
199.00 1.95836
199.50 1.95414
200.00 1.94996
200.50 1.94417
201.00 1.93587
201.50 1.92762
202.00 1.91826
202.50 1.90751
203.00 1.89679
203.50 1.88609
204.00 1.87261
204.50 1.85850
205.00 1.84443
205.50 1.83024
206.00 1.81337
206.50 1.79707
207.00 1.78097
207.50 1.76488
208.00 1.74780
208.50 1.72945
209.00 1.71097
209.50 1.69160
210.00 1.67224
210.50 1.65292
211.00 1.63158
211.50 1.60916
212.00 1.58901
212.50 1.56885
213.00 1.54870
213.50 1.52720
214.00 1.50396
214.50 1.48070
215.00 1.45658
215.50 1.43150
216.00 1.40643
216.50 1.38136
217.00 1.35599
217.50 1.32993
218.00 1.30435
218.50 1.27876
219.00 1.25318
219.50 1.22742
220.00 1.20149
220.50 1.17656
221.00 1.15163
221.50 1.12668
222.00 1.10139
222.50 1.07710
223.00 1.05348
223.50 1.02995
224.00 1.00668
224.50 0.98342
225.00 0.95994
225.50 0.93739
226.00 0.91537
226.50 0.89333
227.00 0.87207
227.50 0.85146
228.00 0.82977
228.50 0.80725
229.00 0.78690
229.50 0.76685
230.00 0.74646
230.50 0.72485
231.00 0.70543
231.50 0.68595
232.00 0.66642
232.50 0.64672
233.00 0.62403
233.50 0.60308
234.00 0.58288
234.50 0.56261
235.00 0.54226
235.50 0.52163
236.00 0.49907
236.50 0.47860
237.00 0.45804
237.50 0.43741
238.00 0.41675
238.50 0.39689
239.00 0.37696
239.50 0.35496
240.00 0.33289
240.50 0.31075
241.00 0.28855
241.50 0.26679
242.00 0.25060
242.50 0.23458
243.00 0.21851
243.50 0.20238
244.00 0.18621
244.50 0.16924
245.00 0.15810
245.50 0.14716
246.00 0.13623
246.50 0.12523
247.00 0.11411
247.50 0.10299
248.00 0.09413
248.50 0.08800
249.00 0.08186
249.50 0.07572
250.00 0.06946
250.50 0.06320
251.00 0.05693
251.50 0.05104
252.00 0.04739
252.50 0.04399
253.00 0.04059
253.50 0.03719
254.00 0.03380
254.50 0.03041
255.00 0.02798
255.50 0.02610
256.00 0.02422
256.50 0.02235
257.00 0.02048
257.50 0.01854
258.00 0.01659
258.50 0.01533
259.00 0.01433
259.50 0.01333
260.00 0.01233
260.50 0.01133
261.00 0.01033
261.50 0.00935
262.00 0.00865
262.50 0.00807
263.00 0.00753
263.50 0.00699
264.00 0.00645
264.50 0.00596
265.00 0.00568
265.50 0.00539
266.00 0.00510
266.50 0.00481
267.00 0.00450
267.50 0.00440
268.00 0.00429
268.50 0.00417
269.00 0.00404
269.50 0.00392
270.00 0.00381
270.00 0.00381
270.50 0.00392
271.00 0.00404
271.50 0.00417
272.00 0.00429
272.50 0.00440
273.00 0.00450
273.50 0.00481
274.00 0.00510
274.50 0.00539
275.00 0.00568
275.50 0.00596
276.00 0.00645
276.50 0.00699
277.00 0.00753
277.50 0.00807
278.00 0.00865
278.50 0.00935
279.00 0.01033
279.50 0.01133
280.00 0.01233
280.50 0.01333
281.00 0.01433
281.50 0.01533
282.00 0.01659
282.50 0.01854
283.00 0.02048
283.50 0.02235
284.00 0.02422
284.50 0.02610
285.00 0.02798
285.50 0.03041
286.00 0.03380
286.50 0.03719
287.00 0.04059
287.50 0.04399
288.00 0.04739
288.50 0.05104
289.00 0.05693
289.50 0.06320
290.00 0.06946
290.50 0.07572
291.00 0.08186
291.50 0.08800
292.00 0.09413
292.50 0.10299
293.00 0.11411
293.50 0.12523
294.00 0.13623
294.50 0.14716
295.00 0.15810
295.50 0.16924
296.00 0.18621
296.50 0.20238
297.00 0.21851
297.50 0.23458
298.00 0.25060
298.50 0.26679
299.00 0.28855
299.50 0.31075
300.00 0.33289
300.50 0.35496
301.00 0.37696
301.50 0.39689
302.00 0.41675
302.50 0.43741
303.00 0.45804
303.50 0.47860
304.00 0.49907
304.50 0.52163
305.00 0.54226
305.50 0.56261
306.00 0.58288
306.50 0.60308
307.00 0.62403
307.50 0.64672
308.00 0.66642
308.50 0.68595
309.00 0.70543
309.50 0.72485
310.00 0.74646
310.50 0.76685
311.00 0.78690
311.50 0.80725
312.00 0.82977
312.50 0.85146
313.00 0.87207
313.50 0.89333
314.00 0.91537
314.50 0.93739
315.00 0.95994
315.50 0.98342
316.00 1.00668
316.50 1.02995
317.00 1.05348
317.50 1.07710
318.00 1.10139
318.50 1.12668
319.00 1.15163
319.50 1.17656
320.00 1.20149
320.50 1.22742
321.00 1.25318
321.50 1.27876
322.00 1.30435
322.50 1.32993
323.00 1.35599
323.50 1.38136
324.00 1.40643
324.50 1.43150
325.00 1.45658
325.50 1.48070
326.00 1.50396
326.50 1.52720
327.00 1.54870
327.50 1.56885
328.00 1.58901
328.50 1.60916
329.00 1.63158
329.50 1.65292
330.00 1.67224
330.50 1.69160
331.00 1.71097
331.50 1.72945
332.00 1.74780
332.50 1.76488
333.00 1.78097
333.50 1.79707
334.00 1.81337
334.50 1.83024
335.00 1.84443
335.50 1.85850
336.00 1.87261
336.50 1.88609
337.00 1.89679
337.50 1.90751
338.00 1.91826
338.50 1.92762
339.00 1.93587
339.50 1.94417
340.00 1.94996
340.50 1.95414
341.00 1.95836
341.50 1.96471
342.00 1.97137
342.50 1.97809
343.00 1.98165
343.50 1.98423
344.00 1.98689
344.50 1.98963
345.00 1.99400
345.50 1.99902
346.00 2.00152
346.50 2.00314
347.00 2.00345
347.50 2.00364
348.00 2.00394
348.50 2.00434
349.00 2.00512
349.50 2.00650
350.00 2.00710
350.50 2.00516
351.00 2.00335
351.50 2.00166
352.00 2.00052
352.50 1.99985
353.00 1.99914
353.50 1.99694
354.00 1.99487
354.50 1.99294
355.00 1.99129
355.50 1.98979
356.00 1.98842
356.50 1.98719
357.00 1.98609
357.50 1.98587
358.00 1.98523
358.50 1.98479
359.00 1.98451
359.50 1.98439
360.00 1.98441
