phi[deg] B[T]
0.00 1.97626
0.50 1.97623
1.00 1.97637
1.50 1.97665
2.00 1.97709
2.50 1.97774
3.00 1.97799
3.50 1.97911
4.00 1.98036
4.50 1.98175
5.00 1.98328
5.50 1.98495
6.00 1.98692
6.50 1.98902
7.00 1.99126
7.50 1.99206
8.00 1.99283
8.50 1.99407
9.00 1.99587
9.50 1.99780
10.00 1.99985
10.50 1.99943
11.00 1.99826
11.50 1.99772
12.00 1.99759
12.50 1.99756
13.00 1.99765
13.50 1.99761
14.00 1.99624
14.50 1.99401
15.00 1.98931
15.50 1.98527
16.00 1.98292
16.50 1.98065
17.00 1.97846
17.50 1.97526
18.00 1.96884
18.50 1.96248
19.00 1.95644
19.50 1.95261
20.00 1.94882
20.50 1.94337
21.00 1.93535
21.50 1.92737
22.00 1.91826
22.50 1.90772
23.00 1.89720
23.50 1.88670
24.00 1.87333
24.50 1.85931
25.00 1.84532
25.50 1.83121
26.00 1.81438
26.50 1.79808
27.00 1.78196
27.50 1.76586
28.00 1.74876
28.50 1.73038
29.00 1.71186
29.50 1.69237
30.00 1.67290
30.50 1.65345
31.00 1.63200
31.50 1.60948
32.00 1.58918
32.50 1.56887
33.00 1.54857
33.50 1.52693
34.00 1.50356
34.50 1.48018
35.00 1.45591
35.50 1.43067
36.00 1.40543
36.50 1.38019
37.00 1.35467
37.50 1.32849
38.00 1.30277
38.50 1.27704
39.00 1.25133
39.50 1.22544
40.00 1.19940
40.50 1.17435
41.00 1.14931
41.50 1.12425
42.00 1.09888
42.50 1.07450
43.00 1.05079
43.50 1.02717
44.00 1.00385
44.50 0.98052
45.00 0.95697
45.50 0.93438
46.00 0.91232
46.50 0.89023
47.00 0.86893
47.50 0.84830
48.00 0.82658
48.50 0.80404
49.00 0.78368
49.50 0.76363
50.00 0.74323
50.50 0.72164
51.00 0.70223
51.50 0.68277
52.00 0.66325
52.50 0.64357
53.00 0.62093
53.50 0.60003
54.00 0.57988
54.50 0.55966
55.00 0.53938
55.50 0.51880
56.00 0.49632
56.50 0.47594
57.00 0.45547
57.50 0.43492
58.00 0.41435
58.50 0.39458
59.00 0.37473
59.50 0.35285
60.00 0.33091
60.50 0.30889
61.00 0.28682
61.50 0.26518
62.00 0.24908
62.50 0.23315
63.00 0.21718
63.50 0.20115
64.00 0.18507
64.50 0.16820
65.00 0.15713
65.50 0.14626
66.00 0.13539
66.50 0.12446
67.00 0.11341
67.50 0.10235
68.00 0.09355
68.50 0.08746
69.00 0.08136
69.50 0.07525
70.00 0.06903
70.50 0.06280
71.00 0.05658
71.50 0.05072
72.00 0.04710
72.50 0.04372
73.00 0.04034
73.50 0.03696
74.00 0.03359
74.50 0.03022
75.00 0.02780
75.50 0.02594
76.00 0.02407
76.50 0.02221
77.00 0.02035
77.50 0.01842
78.00 0.01649
78.50 0.01524
79.00 0.01424
79.50 0.01325
80.00 0.01225
80.50 0.01125
81.00 0.01026
81.50 0.00929
82.00 0.00859
82.50 0.00802
83.00 0.00748
83.50 0.00694
84.00 0.00640
84.50 0.00592
85.00 0.00564
85.50 0.00535
86.00 0.00507
86.50 0.00477
87.00 0.00447
87.50 0.00437
88.00 0.00426
88.50 0.00414
89.00 0.00401
89.50 0.00390
90.00 0.00378
90.00 0.00378
90.50 0.00390
91.00 0.00401
91.50 0.00414
92.00 0.00426
92.50 0.00437
93.00 0.00447
93.50 0.00477
94.00 0.00507
94.50 0.00535
95.00 0.00564
95.50 0.00592
96.00 0.00640
96.50 0.00694
97.00 0.00748
97.50 0.00802
98.00 0.00859
98.50 0.00929
99.00 0.01026
99.50 0.01125
100.00 0.01225
100.50 0.01325
101.00 0.01424
101.50 0.01524
102.00 0.01649
102.50 0.01842
103.00 0.02035
103.50 0.02221
104.00 0.02407
104.50 0.02594
105.00 0.02780
105.50 0.03022
106.00 0.03359
106.50 0.03696
107.00 0.04034
107.50 0.04372
108.00 0.04710
108.50 0.05072
109.00 0.05658
109.50 0.06280
110.00 0.06903
110.50 0.07525
111.00 0.08136
111.50 0.08746
112.00 0.09355
112.50 0.10235
113.00 0.11341
113.50 0.12446
114.00 0.13539
114.50 0.14626
115.00 0.15713
115.50 0.16820
116.00 0.18507
116.50 0.20115
117.00 0.21718
117.50 0.23315
118.00 0.24908
118.50 0.26518
119.00 0.28682
119.50 0.30889
120.00 0.33091
120.50 0.35285
121.00 0.37473
121.50 0.39458
122.00 0.41435
122.50 0.43492
123.00 0.45547
123.50 0.47594
124.00 0.49632
124.50 0.51880
125.00 0.53938
125.50 0.55966
126.00 0.57988
126.50 0.60003
127.00 0.62093
127.50 0.64357
128.00 0.66325
128.50 0.68277
129.00 0.70223
129.50 0.72164
130.00 0.74323
130.50 0.76363
131.00 0.78368
131.50 0.80404
132.00 0.82658
132.50 0.84830
133.00 0.86893
133.50 0.89023
134.00 0.91232
134.50 0.93438
135.00 0.95697
135.50 0.98052
136.00 1.00385
136.50 1.02717
137.00 1.05079
137.50 1.07450
138.00 1.09888
138.50 1.12425
139.00 1.14931
139.50 1.17435
140.00 1.19940
140.50 1.22544
141.00 1.25133
141.50 1.27704
142.00 1.30277
142.50 1.32849
143.00 1.35467
143.50 1.38019
144.00 1.40543
144.50 1.43067
145.00 1.45591
145.50 1.48018
146.00 1.50356
146.50 1.52693
147.00 1.54857
147.50 1.56887
148.00 1.58918
148.50 1.60948
149.00 1.63200
149.50 1.65345
150.00 1.67290
150.50 1.69237
151.00 1.71186
151.50 1.73038
152.00 1.74876
152.50 1.76586
153.00 1.78196
153.50 1.79808
154.00 1.81438
154.50 1.83121
155.00 1.84532
155.50 1.85931
156.00 1.87333
156.50 1.88670
157.00 1.89720
157.50 1.90772
158.00 1.91826
158.50 1.92737
159.00 1.93535
159.50 1.94337
160.00 1.94882
160.50 1.95261
161.00 1.95644
161.50 1.96248
162.00 1.96884
162.50 1.97526
163.00 1.97846
163.50 1.98065
164.00 1.98292
164.50 1.98527
165.00 1.98931
165.50 1.99401
166.00 1.99624
166.50 1.99761
167.00 1.99765
167.50 1.99756
168.00 1.99759
168.50 1.99772
169.00 1.99826
169.50 1.99943
170.00 1.99985
170.50 1.99780
171.00 1.99587
171.50 1.99407
172.00 1.99283
172.50 1.99206
173.00 1.99126
173.50 1.98902
174.00 1.98692
174.50 1.98495
175.00 1.98328
175.50 1.98175
176.00 1.98036
176.50 1.97911
177.00 1.97799
177.50 1.97774
178.00 1.97709
178.50 1.97665
179.00 1.97637
179.50 1.97623
180.00 1.97626
180.00 1.97626
180.50 1.97623
181.00 1.97637
181.50 1.97665
182.00 1.97709
182.50 1.97774
183.00 1.97799
183.50 1.97911
184.00 1.98036
184.50 1.98175
185.00 1.98328
185.50 1.98495
186.00 1.98692
186.50 1.98902
187.00 1.99126
187.50 1.99206
188.00 1.99283
188.50 1.99407
189.00 1.99587
189.50 1.99780
190.00 1.99985
190.50 1.99943
191.00 1.99826
191.50 1.99772
192.00 1.99759
192.50 1.99756
193.00 1.99765
193.50 1.99761
194.00 1.99624
194.50 1.99401
195.00 1.98931
195.50 1.98527
196.00 1.98292
196.50 1.98065
197.00 1.97846
197.50 1.97526
198.00 1.96884
198.50 1.96248
199.00 1.95644
199.50 1.95261
200.00 1.94882
200.50 1.94337
201.00 1.93535
201.50 1.92737
202.00 1.91826
202.50 1.90772
203.00 1.89720
203.50 1.88670
204.00 1.87333
204.50 1.85931
205.00 1.84532
205.50 1.83121
206.00 1.81438
206.50 1.79808
207.00 1.78196
207.50 1.76586
208.00 1.74876
208.50 1.73038
209.00 1.71186
209.50 1.69237
210.00 1.67290
210.50 1.65345
211.00 1.63200
211.50 1.60948
212.00 1.58918
212.50 1.56887
213.00 1.54857
213.50 1.52693
214.00 1.50356
214.50 1.48018
215.00 1.45591
215.50 1.43067
216.00 1.40543
216.50 1.38019
217.00 1.35467
217.50 1.32849
218.00 1.30277
218.50 1.27704
219.00 1.25133
219.50 1.22544
220.00 1.19940
220.50 1.17435
221.00 1.14931
221.50 1.12425
222.00 1.09888
222.50 1.07450
223.00 1.05079
223.50 1.02717
224.00 1.00385
224.50 0.98052
225.00 0.95697
225.50 0.93438
226.00 0.91232
226.50 0.89023
227.00 0.86893
227.50 0.84830
228.00 0.82658
228.50 0.80404
229.00 0.78368
229.50 0.76363
230.00 0.74323
230.50 0.72164
231.00 0.70223
231.50 0.68277
232.00 0.66325
232.50 0.64357
233.00 0.62093
233.50 0.60003
234.00 0.57988
234.50 0.55966
235.00 0.53938
235.50 0.51880
236.00 0.49632
236.50 0.47594
237.00 0.45547
237.50 0.43492
238.00 0.41435
238.50 0.39458
239.00 0.37473
239.50 0.35285
240.00 0.33091
240.50 0.30889
241.00 0.28682
241.50 0.26518
242.00 0.24908
242.50 0.23315
243.00 0.21718
243.50 0.20115
244.00 0.18507
244.50 0.16820
245.00 0.15713
245.50 0.14626
246.00 0.13539
246.50 0.12446
247.00 0.11341
247.50 0.10235
248.00 0.09355
248.50 0.08746
249.00 0.08136
249.50 0.07525
250.00 0.06903
250.50 0.06280
251.00 0.05658
251.50 0.05072
252.00 0.04710
252.50 0.04372
253.00 0.04034
253.50 0.03696
254.00 0.03359
254.50 0.03022
255.00 0.02780
255.50 0.02594
256.00 0.02407
256.50 0.02221
257.00 0.02035
257.50 0.01842
258.00 0.01649
258.50 0.01524
259.00 0.01424
259.50 0.01325
260.00 0.01225
260.50 0.01125
261.00 0.01026
261.50 0.00929
262.00 0.00859
262.50 0.00802
263.00 0.00748
263.50 0.00694
264.00 0.00640
264.50 0.00592
265.00 0.00564
265.50 0.00535
266.00 0.00507
266.50 0.00477
267.00 0.00447
267.50 0.00437
268.00 0.00426
268.50 0.00414
269.00 0.00401
269.50 0.00390
270.00 0.00378
270.00 0.00378
270.50 0.00390
271.00 0.00401
271.50 0.00414
272.00 0.00426
272.50 0.00437
273.00 0.00447
273.50 0.00477
274.00 0.00507
274.50 0.00535
275.00 0.00564
275.50 0.00592
276.00 0.00640
276.50 0.00694
277.00 0.00748
277.50 0.00802
278.00 0.00859
278.50 0.00929
279.00 0.01026
279.50 0.01125
280.00 0.01225
280.50 0.01325
281.00 0.01424
281.50 0.01524
282.00 0.01649
282.50 0.01842
283.00 0.02035
283.50 0.02221
284.00 0.02407
284.50 0.02594
285.00 0.02780
285.50 0.03022
286.00 0.03359
286.50 0.03696
287.00 0.04034
287.50 0.04372
288.00 0.04710
288.50 0.05072
289.00 0.05658
289.50 0.06280
290.00 0.06903
290.50 0.07525
291.00 0.08136
291.50 0.08746
292.00 0.09355
292.50 0.10235
293.00 0.11341
293.50 0.12446
294.00 0.13539
294.50 0.14626
295.00 0.15713
295.50 0.16820
296.00 0.18507
296.50 0.20115
297.00 0.21718
297.50 0.23315
298.00 0.24908
298.50 0.26518
299.00 0.28682
299.50 0.30889
300.00 0.33091
300.50 0.35285
301.00 0.37473
301.50 0.39458
302.00 0.41435
302.50 0.43492
303.00 0.45547
303.50 0.47594
304.00 0.49632
304.50 0.51880
305.00 0.53938
305.50 0.55966
306.00 0.57988
306.50 0.60003
307.00 0.62093
307.50 0.64357
308.00 0.66325
308.50 0.68277
309.00 0.70223
309.50 0.72164
310.00 0.74323
310.50 0.76363
311.00 0.78368
311.50 0.80404
312.00 0.82658
312.50 0.84830
313.00 0.86893
313.50 0.89023
314.00 0.91232
314.50 0.93438
315.00 0.95697
315.50 0.98052
316.00 1.00385
316.50 1.02717
317.00 1.05079
317.50 1.07450
318.00 1.09888
318.50 1.12425
319.00 1.14931
319.50 1.17435
320.00 1.19940
320.50 1.22544
321.00 1.25133
321.50 1.27704
322.00 1.30277
322.50 1.32849
323.00 1.35467
323.50 1.38019
324.00 1.40543
324.50 1.43067
325.00 1.45591
325.50 1.48018
326.00 1.50356
326.50 1.52693
327.00 1.54857
327.50 1.56887
328.00 1.58918
328.50 1.60948
329.00 1.63200
329.50 1.65345
330.00 1.67290
330.50 1.69237
331.00 1.71186
331.50 1.73038
332.00 1.74876
332.50 1.76586
333.00 1.78196
333.50 1.79808
334.00 1.81438
334.50 1.83121
335.00 1.84532
335.50 1.85931
336.00 1.87333
336.50 1.88670
337.00 1.89720
337.50 1.90772
338.00 1.91826
338.50 1.92737
339.00 1.93535
339.50 1.94337
340.00 1.94882
340.50 1.95261
341.00 1.95644
341.50 1.96248
342.00 1.96884
342.50 1.97526
343.00 1.97846
343.50 1.98065
344.00 1.98292
344.50 1.98527
345.00 1.98931
345.50 1.99401
346.00 1.99624
346.50 1.99761
347.00 1.99765
347.50 1.99756
348.00 1.99759
348.50 1.99772
349.00 1.99826
349.50 1.99943
350.00 1.99985
350.50 1.99780
351.00 1.99587
351.50 1.99407
352.00 1.99283
352.50 1.99206
353.00 1.99126
353.50 1.98902
354.00 1.98692
354.50 1.98495
355.00 1.98328
355.50 1.98175
356.00 1.98036
356.50 1.97911
357.00 1.97799
357.50 1.97774
358.00 1.97709
358.50 1.97665
359.00 1.97637
359.50 1.97623
360.00 1.97626
