phi[deg] B[T]
0.00 1.72379
0.50 1.72370
1.00 1.72377
1.50 1.72429
2.00 1.72493
2.50 1.72581
3.00 1.72686
3.50 1.72802
4.00 1.72915
4.50 1.73040
5.00 1.73119
5.50 1.73211
6.00 1.73316
6.50 1.73444
7.00 1.73648
7.50 1.73864
8.00 1.74135
8.50 1.74405
9.00 1.74577
9.50 1.74596
10.00 1.74622
10.50 1.74657
11.00 1.74699
11.50 1.74750
12.00 1.74809
12.50 1.74876
13.00 1.75035
13.50 1.75306
14.00 1.75399
14.50 1.75403
15.00 1.75398
15.50 1.75011
16.00 1.74626
16.50 1.74243
17.00 1.73862
17.50 1.73483
18.00 1.73019
18.50 1.72498
19.00 1.71980
19.50 1.71240
20.00 1.70019
20.50 1.68796
21.00 1.67572
21.50 1.66347
22.00 1.65121
22.50 1.64129
23.00 1.63215
23.50 1.61915
24.00 1.60426
24.50 1.58485
25.00 1.56536
25.50 1.54579
26.00 1.52613
26.50 1.50640
27.00 1.48658
27.50 1.46717
28.00 1.44845
28.50 1.42622
29.00 1.40189
29.50 1.37483
30.00 1.34689
30.50 1.31885
31.00 1.29070
31.50 1.26244
32.00 1.23409
32.50 1.20727
33.00 1.18327
33.50 1.15489
34.00 1.12496
34.50 1.09327
35.00 1.06143
35.50 1.02943
36.00 0.99728
36.50 0.96498
37.00 0.93363
37.50 0.90363
38.00 0.87076
38.50 0.83692
39.00 0.80291
39.50 0.76924
40.00 0.73543
40.50 0.70138
41.00 0.66639
41.50 0.63126
42.00 0.59698
42.50 0.56461
43.00 0.53121
43.50 0.49596
44.00 0.46193
44.50 0.43123
45.00 0.40045
45.50 0.37267
46.00 0.34481
46.50 0.31584
47.00 0.28667
47.50 0.26152
48.00 0.23941
48.50 0.21724
49.00 0.19609
49.50 0.17606
50.00 0.15880
50.50 0.14629
51.00 0.13368
51.50 0.12077
52.00 0.10787
52.50 0.09496
53.00 0.08651
53.50 0.07866
54.00 0.07124
54.50 0.06513
55.00 0.05904
55.50 0.05294
56.00 0.04686
56.50 0.04139
57.00 0.03766
57.50 0.03392
58.00 0.03018
58.50 0.02729
59.00 0.02491
59.50 0.02253
60.00 0.02016
60.50 0.01798
61.00 0.01617
61.50 0.01436
62.00 0.01292
62.50 0.01198
63.00 0.01104
63.50 0.01010
64.00 0.00916
64.50 0.00822
65.00 0.00728
65.50 0.00632
66.00 0.00568
66.50 0.00527
67.00 0.00487
67.50 0.00446
68.00 0.00406
68.50 0.00365
69.00 0.00325
69.50 0.00284
70.00 0.00244
70.50 0.00226
71.00 0.00207
71.50 0.00190
72.00 0.00172
72.50 0.00155
73.00 0.00140
73.50 0.00130
74.00 0.00120
74.50 0.00111
75.00 0.00101
75.50 0.00091
76.00 0.00081
76.50 0.00074
77.00 0.00070
77.50 0.00065
78.00 0.00060
78.50 0.00056
79.00 0.00051
79.50 0.00046
80.00 0.00041
80.50 0.00038
81.00 0.00036
81.50 0.00033
82.00 0.00031
82.50 0.00028
83.00 0.00026
83.50 0.00024
84.00 0.00022
84.50 0.00020
85.00 0.00018
85.50 0.00016
86.00 0.00014
86.50 0.00013
87.00 0.00011
87.50 0.00010
88.00 0.00008
88.50 0.00007
89.00 0.00006
89.50 0.00006
90.00 0.00005
90.00 0.00005
90.50 0.00006
91.00 0.00006
91.50 0.00007
92.00 0.00008
92.50 0.00010
93.00 0.00011
93.50 0.00013
94.00 0.00014
94.50 0.00016
95.00 0.00018
95.50 0.00020
96.00 0.00022
96.50 0.00024
97.00 0.00026
97.50 0.00028
98.00 0.00031
98.50 0.00033
99.00 0.00036
99.50 0.00038
100.00 0.00041
100.50 0.00046
101.00 0.00051
101.50 0.00056
102.00 0.00060
102.50 0.00065
103.00 0.00070
103.50 0.00074
104.00 0.00081
104.50 0.00091
105.00 0.00101
105.50 0.00111
106.00 0.00120
106.50 0.00130
107.00 0.00140
107.50 0.00155
108.00 0.00172
108.50 0.00190
109.00 0.00207
109.50 0.00226
110.00 0.00244
110.50 0.00284
111.00 0.00325
111.50 0.00365
112.00 0.00406
112.50 0.00446
113.00 0.00487
113.50 0.00527
114.00 0.00568
114.50 0.00632
115.00 0.00728
115.50 0.00822
116.00 0.00916
116.50 0.01010
117.00 0.01104
117.50 0.01198
118.00 0.01292
118.50 0.01436
119.00 0.01617
119.50 0.01798
120.00 0.02016
120.50 0.02253
121.00 0.02491
121.50 0.02729
122.00 0.03018
122.50 0.03392
123.00 0.03766
123.50 0.04139
124.00 0.04686
124.50 0.05294
125.00 0.05904
125.50 0.06513
126.00 0.07124
126.50 0.07866
127.00 0.08651
127.50 0.09496
128.00 0.10787
128.50 0.12077
129.00 0.13368
129.50 0.14629
130.00 0.15880
130.50 0.17606
131.00 0.19609
131.50 0.21724
132.00 0.23941
132.50 0.26152
133.00 0.28667
133.50 0.31584
134.00 0.34481
134.50 0.37267
135.00 0.40045
135.50 0.43123
136.00 0.46193
136.50 0.49596
137.00 0.53121
137.50 0.56461
138.00 0.59698
138.50 0.63126
139.00 0.66639
139.50 0.70138
140.00 0.73543
140.50 0.76924
141.00 0.80291
141.50 0.83692
142.00 0.87076
142.50 0.90363
143.00 0.93363
143.50 0.96498
144.00 0.99728
144.50 1.02943
145.00 1.06143
145.50 1.09327
146.00 1.12496
146.50 1.15489
147.00 1.18327
147.50 1.20727
148.00 1.23409
148.50 1.26244
149.00 1.29070
149.50 1.31885
150.00 1.34689
150.50 1.37483
151.00 1.40189
151.50 1.42622
152.00 1.44845
152.50 1.46717
153.00 1.48658
153.50 1.50640
154.00 1.52613
154.50 1.54579
155.00 1.56536
155.50 1.58485
156.00 1.60426
156.50 1.61915
157.00 1.63215
157.50 1.64129
158.00 1.65121
158.50 1.66347
159.00 1.67572
159.50 1.68796
160.00 1.70019
160.50 1.71240
161.00 1.71980
161.50 1.72498
162.00 1.73019
162.50 1.73483
163.00 1.73862
163.50 1.74243
164.00 1.74626
164.50 1.75011
165.00 1.75398
165.50 1.75403
166.00 1.75399
166.50 1.75306
167.00 1.75035
167.50 1.74876
168.00 1.74809
168.50 1.74750
169.00 1.74699
169.50 1.74657
170.00 1.74622
170.50 1.74596
171.00 1.74577
171.50 1.74405
172.00 1.74135
172.50 1.73864
173.00 1.73648
173.50 1.73444
174.00 1.73316
174.50 1.73211
175.00 1.73119
175.50 1.73040
176.00 1.72915
176.50 1.72802
177.00 1.72686
177.50 1.72581
178.00 1.72493
178.50 1.72429
179.00 1.72377
179.50 1.72370
180.00 1.72379
180.00 1.72379
180.50 1.72370
181.00 1.72377
181.50 1.72429
182.00 1.72493
182.50 1.72581
183.00 1.72686
183.50 1.72802
184.00 1.72915
184.50 1.73040
185.00 1.73119
185.50 1.73211
186.00 1.73316
186.50 1.73444
187.00 1.73648
187.50 1.73864
188.00 1.74135
188.50 1.74405
189.00 1.74577
189.50 1.74596
190.00 1.74622
190.50 1.74657
191.00 1.74699
191.50 1.74750
192.00 1.74809
192.50 1.74876
193.00 1.75035
193.50 1.75306
194.00 1.75399
194.50 1.75403
195.00 1.75398
195.50 1.75011
196.00 1.74626
196.50 1.74243
197.00 1.73862
197.50 1.73483
198.00 1.73019
198.50 1.72498
199.00 1.71980
199.50 1.71240
200.00 1.70019
200.50 1.68796
201.00 1.67572
201.50 1.66347
202.00 1.65121
202.50 1.64129
203.00 1.63215
203.50 1.61915
204.00 1.60426
204.50 1.58485
205.00 1.56536
205.50 1.54579
206.00 1.52613
206.50 1.50640
207.00 1.48658
207.50 1.46717
208.00 1.44845
208.50 1.42622
209.00 1.40189
209.50 1.37483
210.00 1.34689
210.50 1.31885
211.00 1.29070
211.50 1.26244
212.00 1.23409
212.50 1.20727
213.00 1.18327
213.50 1.15489
214.00 1.12496
214.50 1.09327
215.00 1.06143
215.50 1.02943
216.00 0.99728
216.50 0.96498
217.00 0.93363
217.50 0.90363
218.00 0.87076
218.50 0.83692
219.00 0.80291
219.50 0.76924
220.00 0.73543
220.50 0.70138
221.00 0.66639
221.50 0.63126
222.00 0.59698
222.50 0.56461
223.00 0.53121
223.50 0.49596
224.00 0.46193
224.50 0.43123
225.00 0.40045
225.50 0.37267
226.00 0.34481
226.50 0.31584
227.00 0.28667
227.50 0.26152
228.00 0.23941
228.50 0.21724
229.00 0.19609
229.50 0.17606
230.00 0.15880
230.50 0.14629
231.00 0.13368
231.50 0.12077
232.00 0.10787
232.50 0.09496
233.00 0.08651
233.50 0.07866
234.00 0.07124
234.50 0.06513
235.00 0.05904
235.50 0.05294
236.00 0.04686
236.50 0.04139
237.00 0.03766
237.50 0.03392
238.00 0.03018
238.50 0.02729
239.00 0.02491
239.50 0.02253
240.00 0.02016
240.50 0.01798
241.00 0.01617
241.50 0.01436
242.00 0.01292
242.50 0.01198
243.00 0.01104
243.50 0.01010
244.00 0.00916
244.50 0.00822
245.00 0.00728
245.50 0.00632
246.00 0.00568
246.50 0.00527
247.00 0.00487
247.50 0.00446
248.00 0.00406
248.50 0.00365
249.00 0.00325
249.50 0.00284
250.00 0.00244
250.50 0.00226
251.00 0.00207
251.50 0.00190
252.00 0.00172
252.50 0.00155
253.00 0.00140
253.50 0.00130
254.00 0.00120
254.50 0.00111
255.00 0.00101
255.50 0.00091
256.00 0.00081
256.50 0.00074
257.00 0.00070
257.50 0.00065
258.00 0.00060
258.50 0.00056
259.00 0.00051
259.50 0.00046
260.00 0.00041
260.50 0.00038
261.00 0.00036
261.50 0.00033
262.00 0.00031
262.50 0.00028
263.00 0.00026
263.50 0.00024
264.00 0.00022
264.50 0.00020
265.00 0.00018
265.50 0.00016
266.00 0.00014
266.50 0.00013
267.00 0.00011
267.50 0.00010
268.00 0.00008
268.50 0.00007
269.00 0.00006
269.50 0.00006
270.00 0.00005
270.00 0.00005
270.50 0.00006
271.00 0.00006
271.50 0.00007
272.00 0.00008
272.50 0.00010
273.00 0.00011
273.50 0.00013
274.00 0.00014
274.50 0.00016
275.00 0.00018
275.50 0.00020
276.00 0.00022
276.50 0.00024
277.00 0.00026
277.50 0.00028
278.00 0.00031
278.50 0.00033
279.00 0.00036
279.50 0.00038
280.00 0.00041
280.50 0.00046
281.00 0.00051
281.50 0.00056
282.00 0.00060
282.50 0.00065
283.00 0.00070
283.50 0.00074
284.00 0.00081
284.50 0.00091
285.00 0.00101
285.50 0.00111
286.00 0.00120
286.50 0.00130
287.00 0.00140
287.50 0.00155
288.00 0.00172
288.50 0.00190
289.00 0.00207
289.50 0.00226
290.00 0.00244
290.50 0.00284
291.00 0.00325
291.50 0.00365
292.00 0.00406
292.50 0.00446
293.00 0.00487
293.50 0.00527
294.00 0.00568
294.50 0.00632
295.00 0.00728
295.50 0.00822
296.00 0.00916
296.50 0.01010
297.00 0.01104
297.50 0.01198
298.00 0.01292
298.50 0.01436
299.00 0.01617
299.50 0.01798
300.00 0.02016
300.50 0.02253
301.00 0.02491
301.50 0.02729
302.00 0.03018
302.50 0.03392
303.00 0.03766
303.50 0.04139
304.00 0.04686
304.50 0.05294
305.00 0.05904
305.50 0.06513
306.00 0.07124
306.50 0.07866
307.00 0.08651
307.50 0.09496
308.00 0.10787
308.50 0.12077
309.00 0.13368
309.50 0.14629
310.00 0.15880
310.50 0.17606
311.00 0.19609
311.50 0.21724
312.00 0.23941
312.50 0.26152
313.00 0.28667
313.50 0.31584
314.00 0.34481
314.50 0.37267
315.00 0.40045
315.50 0.43123
316.00 0.46193
316.50 0.49596
317.00 0.53121
317.50 0.56461
318.00 0.59698
318.50 0.63126
319.00 0.66639
319.50 0.70138
320.00 0.73543
320.50 0.76924
321.00 0.80291
321.50 0.83692
322.00 0.87076
322.50 0.90363
323.00 0.93363
323.50 0.96498
324.00 0.99728
324.50 1.02943
325.00 1.06143
325.50 1.09327
326.00 1.12496
326.50 1.15489
327.00 1.18327
327.50 1.20727
328.00 1.23409
328.50 1.26244
329.00 1.29070
329.50 1.31885
330.00 1.34689
330.50 1.37483
331.00 1.40189
331.50 1.42622
332.00 1.44845
332.50 1.46717
333.00 1.48658
333.50 1.50640
334.00 1.52613
334.50 1.54579
335.00 1.56536
335.50 1.58485
336.00 1.60426
336.50 1.61915
337.00 1.63215
337.50 1.64129
338.00 1.65121
338.50 1.66347
339.00 1.67572
339.50 1.68796
340.00 1.70019
340.50 1.71240
341.00 1.71980
341.50 1.72498
342.00 1.73019
342.50 1.73483
343.00 1.73862
343.50 1.74243
344.00 1.74626
344.50 1.75011
345.00 1.75398
345.50 1.75403
346.00 1.75399
346.50 1.75306
347.00 1.75035
347.50 1.74876
348.00 1.74809
348.50 1.74750
349.00 1.74699
349.50 1.74657
350.00 1.74622
350.50 1.74596
351.00 1.74577
351.50 1.74405
352.00 1.74135
352.50 1.73864
353.00 1.73648
353.50 1.73444
354.00 1.73316
354.50 1.73211
355.00 1.73119
355.50 1.73040
356.00 1.72915
356.50 1.72802
357.00 1.72686
357.50 1.72581
358.00 1.72493
358.50 1.72429
359.00 1.72377
359.50 1.72370
360.00 1.72379
