phi[deg] B[T]
0.00 1.56308
0.50 1.56278
1.00 1.56259
1.50 1.56251
2.00 1.56256
2.50 1.56271
3.00 1.56294
3.50 1.56331
4.00 1.56380
4.50 1.56439
5.00 1.56509
5.50 1.56584
6.00 1.56661
6.50 1.56750
7.00 1.56849
7.50 1.56872
8.00 1.56873
8.50 1.56896
9.00 1.56937
9.50 1.56988
10.00 1.57050
10.50 1.57087
11.00 1.56885
11.50 1.56691
12.00 1.56614
12.50 1.56552
13.00 1.56497
13.50 1.56425
14.00 1.56149
14.50 1.55880
15.00 1.55619
15.50 1.55307
16.00 1.54915
16.50 1.54530
17.00 1.54146
17.50 1.53692
18.00 1.53244
18.50 1.52804
19.00 1.52371
19.50 1.51945
20.00 1.51437
20.50 1.50698
21.00 1.50002
21.50 1.49314
22.00 1.48631
22.50 1.47954
23.00 1.47281
23.50 1.46613
24.00 1.45508
24.50 1.44371
25.00 1.43229
25.50 1.42077
26.00 1.40929
26.50 1.39784
27.00 1.38644
27.50 1.37507
28.00 1.36043
28.50 1.34533
29.00 1.33026
29.50 1.31608
30.00 1.30312
30.50 1.29017
31.00 1.27723
31.50 1.26352
32.00 1.24824
32.50 1.23298
33.00 1.21774
33.50 1.20091
34.00 1.18326
34.50 1.16561
35.00 1.14797
35.50 1.13094
36.00 1.11398
36.50 1.09703
37.00 1.07844
37.50 1.05941
38.00 1.04040
38.50 1.02138
39.00 1.00197
39.50 0.98328
40.00 0.96478
40.50 0.94629
41.00 0.92780
41.50 0.90824
42.00 0.88954
42.50 0.87187
43.00 0.85419
43.50 0.83630
44.00 0.81837
44.50 0.80044
45.00 0.78199
45.50 0.76345
46.00 0.74615
46.50 0.72882
47.00 0.71148
47.50 0.69422
48.00 0.67694
48.50 0.65926
49.00 0.64066
49.50 0.62352
50.00 0.60634
50.50 0.58912
51.00 0.57186
51.50 0.55312
52.00 0.53519
52.50 0.51823
53.00 0.50121
53.50 0.48413
54.00 0.46762
54.50 0.45140
55.00 0.43511
55.50 0.41777
56.00 0.39961
56.50 0.38139
57.00 0.36341
57.50 0.34543
58.00 0.32738
58.50 0.30927
59.00 0.29110
59.50 0.27549
60.00 0.26022
60.50 0.24489
61.00 0.22893
61.50 0.21259
62.00 0.19621
62.50 0.17981
63.00 0.16531
63.50 0.15292
64.00 0.14049
64.50 0.12804
65.00 0.11633
65.50 0.10674
66.00 0.09834
66.50 0.09081
67.00 0.08327
67.50 0.07571
68.00 0.06815
68.50 0.06257
69.00 0.05813
69.50 0.05369
70.00 0.04926
70.50 0.04485
71.00 0.04079
71.50 0.03673
72.00 0.03268
72.50 0.02963
73.00 0.02763
73.50 0.02562
74.00 0.02363
74.50 0.02164
75.00 0.01967
75.50 0.01769
76.00 0.01571
76.50 0.01435
77.00 0.01328
77.50 0.01221
78.00 0.01115
78.50 0.01016
79.00 0.00932
79.50 0.00849
80.00 0.00765
80.50 0.00704
81.00 0.00650
81.50 0.00595
82.00 0.00545
82.50 0.00506
83.00 0.00467
83.50 0.00427
84.00 0.00393
84.50 0.00365
85.00 0.00337
85.50 0.00321
86.00 0.00305
86.50 0.00290
87.00 0.00274
87.50 0.00258
88.00 0.00249
88.50 0.00242
89.00 0.00236
89.50 0.00229
90.00 0.00222
90.00 0.00222
90.50 0.00229
91.00 0.00236
91.50 0.00242
92.00 0.00249
92.50 0.00258
93.00 0.00274
93.50 0.00290
94.00 0.00305
94.50 0.00321
95.00 0.00337
95.50 0.00365
96.00 0.00393
96.50 0.00427
97.00 0.00467
97.50 0.00506
98.00 0.00545
98.50 0.00595
99.00 0.00650
99.50 0.00704
100.00 0.00765
100.50 0.00849
101.00 0.00932
101.50 0.01016
102.00 0.01115
102.50 0.01221
103.00 0.01328
103.50 0.01435
104.00 0.01571
104.50 0.01769
105.00 0.01967
105.50 0.02164
106.00 0.02363
106.50 0.02562
107.00 0.02763
107.50 0.02963
108.00 0.03268
108.50 0.03673
109.00 0.04079
109.50 0.04485
110.00 0.04926
110.50 0.05369
111.00 0.05813
111.50 0.06257
112.00 0.06815
112.50 0.07571
113.00 0.08327
113.50 0.09081
114.00 0.09834
114.50 0.10674
115.00 0.11633
115.50 0.12804
116.00 0.14049
116.50 0.15292
117.00 0.16531
117.50 0.17981
118.00 0.19621
118.50 0.21259
119.00 0.22893
119.50 0.24489
120.00 0.26022
120.50 0.27549
121.00 0.29110
121.50 0.30927
122.00 0.32738
122.50 0.34543
123.00 0.36341
123.50 0.38139
124.00 0.39961
124.50 0.41777
125.00 0.43511
125.50 0.45140
126.00 0.46762
126.50 0.48413
127.00 0.50121
127.50 0.51823
128.00 0.53519
128.50 0.55312
129.00 0.57186
129.50 0.58912
130.00 0.60634
130.50 0.62352
131.00 0.64066
131.50 0.65926
132.00 0.67694
132.50 0.69422
133.00 0.71148
133.50 0.72882
134.00 0.74615
134.50 0.76345
135.00 0.78199
135.50 0.80044
136.00 0.81837
136.50 0.83630
137.00 0.85419
137.50 0.87187
138.00 0.88954
138.50 0.90824
139.00 0.92780
139.50 0.94629
140.00 0.96478
140.50 0.98328
141.00 1.00197
141.50 1.02138
142.00 1.04040
142.50 1.05941
143.00 1.07844
143.50 1.09703
144.00 1.11398
144.50 1.13094
145.00 1.14797
145.50 1.16561
146.00 1.18326
146.50 1.20091
147.00 1.21774
147.50 1.23298
148.00 1.24824
148.50 1.26352
149.00 1.27723
149.50 1.29017
150.00 1.30312
150.50 1.31608
151.00 1.33026
151.50 1.34533
152.00 1.36043
152.50 1.37507
153.00 1.38644
153.50 1.39784
154.00 1.40929
154.50 1.42077
155.00 1.43229
155.50 1.44371
156.00 1.45508
156.50 1.46613
157.00 1.47281
157.50 1.47954
158.00 1.48631
158.50 1.49314
159.00 1.50002
159.50 1.50698
160.00 1.51437
160.50 1.51945
161.00 1.52371
161.50 1.52804
162.00 1.53244
162.50 1.53692
163.00 1.54146
163.50 1.54530
164.00 1.54915
164.50 1.55307
165.00 1.55619
165.50 1.55880
166.00 1.56149
166.50 1.56425
167.00 1.56497
167.50 1.56552
168.00 1.56614
168.50 1.56691
169.00 1.56885
169.50 1.57087
170.00 1.57050
170.50 1.56988
171.00 1.56937
171.50 1.56896
172.00 1.56873
172.50 1.56872
173.00 1.56849
173.50 1.56750
174.00 1.56661
174.50 1.56584
175.00 1.56509
175.50 1.56439
176.00 1.56380
176.50 1.56331
177.00 1.56294
177.50 1.56271
178.00 1.56256
178.50 1.56251
179.00 1.56259
179.50 1.56278
180.00 1.56308
180.00 1.56308
180.50 1.56278
181.00 1.56259
181.50 1.56251
182.00 1.56256
182.50 1.56271
183.00 1.56294
183.50 1.56331
184.00 1.56380
184.50 1.56439
185.00 1.56509
185.50 1.56584
186.00 1.56661
186.50 1.56750
187.00 1.56849
187.50 1.56872
188.00 1.56873
188.50 1.56896
189.00 1.56937
189.50 1.56988
190.00 1.57050
190.50 1.57087
191.00 1.56885
191.50 1.56691
192.00 1.56614
192.50 1.56552
193.00 1.56497
193.50 1.56425
194.00 1.56149
194.50 1.55880
195.00 1.55619
195.50 1.55307
196.00 1.54915
196.50 1.54530
197.00 1.54146
197.50 1.53692
198.00 1.53244
198.50 1.52804
199.00 1.52371
199.50 1.51945
200.00 1.51437
200.50 1.50698
201.00 1.50002
201.50 1.49314
202.00 1.48631
202.50 1.47954
203.00 1.47281
203.50 1.46613
204.00 1.45508
204.50 1.44371
205.00 1.43229
205.50 1.42077
206.00 1.40929
206.50 1.39784
207.00 1.38644
207.50 1.37507
208.00 1.36043
208.50 1.34533
209.00 1.33026
209.50 1.31608
210.00 1.30312
210.50 1.29017
211.00 1.27723
211.50 1.26352
212.00 1.24824
212.50 1.23298
213.00 1.21774
213.50 1.20091
214.00 1.18326
214.50 1.16561
215.00 1.14797
215.50 1.13094
216.00 1.11398
216.50 1.09703
217.00 1.07844
217.50 1.05941
218.00 1.04040
218.50 1.02138
219.00 1.00197
219.50 0.98328
220.00 0.96478
220.50 0.94629
221.00 0.92780
221.50 0.90824
222.00 0.88954
222.50 0.87187
223.00 0.85419
223.50 0.83630
224.00 0.81837
224.50 0.80044
225.00 0.78199
225.50 0.76345
226.00 0.74615
226.50 0.72882
227.00 0.71148
227.50 0.69422
228.00 0.67694
228.50 0.65926
229.00 0.64066
229.50 0.62352
230.00 0.60634
230.50 0.58912
231.00 0.57186
231.50 0.55312
232.00 0.53519
232.50 0.51823
233.00 0.50121
233.50 0.48413
234.00 0.46762
234.50 0.45140
235.00 0.43511
235.50 0.41777
236.00 0.39961
236.50 0.38139
237.00 0.36341
237.50 0.34543
238.00 0.32738
238.50 0.30927
239.00 0.29110
239.50 0.27549
240.00 0.26022
240.50 0.24489
241.00 0.22893
241.50 0.21259
242.00 0.19621
242.50 0.17981
243.00 0.16531
243.50 0.15292
244.00 0.14049
244.50 0.12804
245.00 0.11633
245.50 0.10674
246.00 0.09834
246.50 0.09081
247.00 0.08327
247.50 0.07571
248.00 0.06815
248.50 0.06257
249.00 0.05813
249.50 0.05369
250.00 0.04926
250.50 0.04485
251.00 0.04079
251.50 0.03673
252.00 0.03268
252.50 0.02963
253.00 0.02763
253.50 0.02562
254.00 0.02363
254.50 0.02164
255.00 0.01967
255.50 0.01769
256.00 0.01571
256.50 0.01435
257.00 0.01328
257.50 0.01221
258.00 0.01115
258.50 0.01016
259.00 0.00932
259.50 0.00849
260.00 0.00765
260.50 0.00704
261.00 0.00650
261.50 0.00595
262.00 0.00545
262.50 0.00506
263.00 0.00467
263.50 0.00427
264.00 0.00393
264.50 0.00365
265.00 0.00337
265.50 0.00321
266.00 0.00305
266.50 0.00290
267.00 0.00274
267.50 0.00258
268.00 0.00249
268.50 0.00242
269.00 0.00236
269.50 0.00229
270.00 0.00222
270.00 0.00222
270.50 0.00229
271.00 0.00236
271.50 0.00242
272.00 0.00249
272.50 0.00258
273.00 0.00274
273.50 0.00290
274.00 0.00305
274.50 0.00321
275.00 0.00337
275.50 0.00365
276.00 0.00393
276.50 0.00427
277.00 0.00467
277.50 0.00506
278.00 0.00545
278.50 0.00595
279.00 0.00650
279.50 0.00704
280.00 0.00765
280.50 0.00849
281.00 0.00932
281.50 0.01016
282.00 0.01115
282.50 0.01221
283.00 0.01328
283.50 0.01435
284.00 0.01571
284.50 0.01769
285.00 0.01967
285.50 0.02164
286.00 0.02363
286.50 0.02562
287.00 0.02763
287.50 0.02963
288.00 0.03268
288.50 0.03673
289.00 0.04079
289.50 0.04485
290.00 0.04926
290.50 0.05369
291.00 0.05813
291.50 0.06257
292.00 0.06815
292.50 0.07571
293.00 0.08327
293.50 0.09081
294.00 0.09834
294.50 0.10674
295.00 0.11633
295.50 0.12804
296.00 0.14049
296.50 0.15292
297.00 0.16531
297.50 0.17981
298.00 0.19621
298.50 0.21259
299.00 0.22893
299.50 0.24489
300.00 0.26022
300.50 0.27549
301.00 0.29110
301.50 0.30927
302.00 0.32738
302.50 0.34543
303.00 0.36341
303.50 0.38139
304.00 0.39961
304.50 0.41777
305.00 0.43511
305.50 0.45140
306.00 0.46762
306.50 0.48413
307.00 0.50121
307.50 0.51823
308.00 0.53519
308.50 0.55312
309.00 0.57186
309.50 0.58912
310.00 0.60634
310.50 0.62352
311.00 0.64066
311.50 0.65926
312.00 0.67694
312.50 0.69422
313.00 0.71148
313.50 0.72882
314.00 0.74615
314.50 0.76345
315.00 0.78199
315.50 0.80044
316.00 0.81837
316.50 0.83630
317.00 0.85419
317.50 0.87187
318.00 0.88954
318.50 0.90824
319.00 0.92780
319.50 0.94629
320.00 0.96478
320.50 0.98328
321.00 1.00197
321.50 1.02138
322.00 1.04040
322.50 1.05941
323.00 1.07844
323.50 1.09703
324.00 1.11398
324.50 1.13094
325.00 1.14797
325.50 1.16561
326.00 1.18326
326.50 1.20091
327.00 1.21774
327.50 1.23298
328.00 1.24824
328.50 1.26352
329.00 1.27723
329.50 1.29017
330.00 1.30312
330.50 1.31608
331.00 1.33026
331.50 1.34533
332.00 1.36043
332.50 1.37507
333.00 1.38644
333.50 1.39784
334.00 1.40929
334.50 1.42077
335.00 1.43229
335.50 1.44371
336.00 1.45508
336.50 1.46613
337.00 1.47281
337.50 1.47954
338.00 1.48631
338.50 1.49314
339.00 1.50002
339.50 1.50698
340.00 1.51437
340.50 1.51945
341.00 1.52371
341.50 1.52804
342.00 1.53244
342.50 1.53692
343.00 1.54146
343.50 1.54530
344.00 1.54915
344.50 1.55307
345.00 1.55619
345.50 1.55880
346.00 1.56149
346.50 1.56425
347.00 1.56497
347.50 1.56552
348.00 1.56614
348.50 1.56691
349.00 1.56885
349.50 1.57087
350.00 1.57050
350.50 1.56988
351.00 1.56937
351.50 1.56896
352.00 1.56873
352.50 1.56872
353.00 1.56849
353.50 1.56750
354.00 1.56661
354.50 1.56584
355.00 1.56509
355.50 1.56439
356.00 1.56380
356.50 1.56331
357.00 1.56294
357.50 1.56271
358.00 1.56256
358.50 1.56251
359.00 1.56259
359.50 1.56278
360.00 1.56308
