phi[deg] B[T]
0.00 1.49868
0.50 1.49780
1.00 1.49701
1.50 1.49634
2.00 1.49570
2.50 1.49474
3.00 1.49391
3.50 1.49319
4.00 1.49264
4.50 1.49239
5.00 1.49226
5.50 1.49240
6.00 1.49272
6.50 1.49315
7.00 1.49360
7.50 1.49417
8.00 1.49486
8.50 1.49567
9.00 1.49764
9.50 1.49991
10.00 1.50168
10.50 1.50212
11.00 1.50232
11.50 1.50260
12.00 1.50297
12.50 1.50177
13.00 1.50003
13.50 1.49835
14.00 1.49636
14.50 1.49445
15.00 1.49263
15.50 1.49042
16.00 1.48819
16.50 1.48598
17.00 1.48302
17.50 1.48016
18.00 1.47739
18.50 1.47514
19.00 1.47419
19.50 1.47319
20.00 1.47195
20.50 1.46732
21.00 1.46273
21.50 1.45818
22.00 1.45349
22.50 1.44764
23.00 1.44182
23.50 1.43360
24.00 1.42276
24.50 1.41192
25.00 1.40106
25.50 1.38561
26.00 1.37021
26.50 1.35491
27.00 1.33972
27.50 1.32458
28.00 1.30949
28.50 1.29398
29.00 1.27810
29.50 1.26377
30.00 1.24890
30.50 1.23325
31.00 1.21765
31.50 1.20211
32.00 1.18699
32.50 1.17346
33.00 1.15997
33.50 1.14301
34.00 1.12537
34.50 1.10774
35.00 1.09015
35.50 1.07384
36.00 1.05748
36.50 1.03672
37.00 1.01604
37.50 0.99658
38.00 0.97699
38.50 0.95679
39.00 0.93662
39.50 0.91665
40.00 0.89674
40.50 0.87715
41.00 0.85829
41.50 0.83951
42.00 0.82137
42.50 0.80328
43.00 0.78570
43.50 0.76862
44.00 0.75197
44.50 0.73585
45.00 0.71983
45.50 0.70509
46.00 0.69033
46.50 0.67674
47.00 0.66369
47.50 0.65069
48.00 0.63889
48.50 0.62970
49.00 0.61931
49.50 0.60747
50.00 0.59564
50.50 0.58645
51.00 0.57933
51.50 0.56957
52.00 0.55632
52.50 0.54300
53.00 0.52962
53.50 0.51842
54.00 0.50934
54.50 0.49486
55.00 0.47651
55.50 0.45799
56.00 0.43930
56.50 0.42044
57.00 0.40295
57.50 0.38555
58.00 0.35653
58.50 0.33213
59.00 0.30925
59.50 0.28623
60.00 0.26273
60.50 0.23699
61.00 0.21113
61.50 0.18515
62.00 0.16167
62.50 0.14227
63.00 0.12806
63.50 0.11376
64.00 0.09933
64.50 0.08488
65.00 0.07040
65.50 0.06235
66.00 0.05517
66.50 0.04799
67.00 0.04099
67.50 0.03404
68.00 0.03012
68.50 0.02660
69.00 0.02318
69.50 0.01976
70.00 0.01634
70.50 0.01460
71.00 0.01293
71.50 0.01126
72.00 0.00959
72.50 0.00801
73.00 0.00701
73.50 0.00624
74.00 0.00549
74.50 0.00475
75.00 0.00400
75.50 0.00342
76.00 0.00302
76.50 0.00263
77.00 0.00226
77.50 0.00193
78.00 0.00168
78.50 0.00150
79.00 0.00133
79.50 0.00117
80.00 0.00101
80.50 0.00086
81.00 0.00076
81.50 0.00067
82.00 0.00059
82.50 0.00053
83.00 0.00047
83.50 0.00042
84.00 0.00037
84.50 0.00032
85.00 0.00029
85.50 0.00026
86.00 0.00022
86.50 0.00019
87.00 0.00017
87.50 0.00014
88.00 0.00012
88.50 0.00010
89.00 0.00009
89.50 0.00008
90.00 0.00006
90.00 0.00006
90.50 0.00008
91.00 0.00009
91.50 0.00010
92.00 0.00012
92.50 0.00014
93.00 0.00017
93.50 0.00019
94.00 0.00022
94.50 0.00026
95.00 0.00029
95.50 0.00032
96.00 0.00037
96.50 0.00042
97.00 0.00047
97.50 0.00053
98.00 0.00059
98.50 0.00067
99.00 0.00076
99.50 0.00086
100.00 0.00101
100.50 0.00117
101.00 0.00133
101.50 0.00150
102.00 0.00168
102.50 0.00193
103.00 0.00226
103.50 0.00263
104.00 0.00302
104.50 0.00342
105.00 0.00400
105.50 0.00475
106.00 0.00549
106.50 0.00624
107.00 0.00701
107.50 0.00801
108.00 0.00959
108.50 0.01126
109.00 0.01293
109.50 0.01460
110.00 0.01634
110.50 0.01976
111.00 0.02318
111.50 0.02660
112.00 0.03012
112.50 0.03404
113.00 0.04099
113.50 0.04799
114.00 0.05517
114.50 0.06235
115.00 0.07040
115.50 0.08488
116.00 0.09933
116.50 0.11376
117.00 0.12806
117.50 0.14227
118.00 0.16167
118.50 0.18515
119.00 0.21113
119.50 0.23699
120.00 0.26273
120.50 0.28623
121.00 0.30925
121.50 0.33213
122.00 0.35653
122.50 0.38555
123.00 0.40295
123.50 0.42044
124.00 0.43930
124.50 0.45799
125.00 0.47651
125.50 0.49486
126.00 0.50934
126.50 0.51842
127.00 0.52962
127.50 0.54300
128.00 0.55632
128.50 0.56957
129.00 0.57933
129.50 0.58645
130.00 0.59564
130.50 0.60747
131.00 0.61931
131.50 0.62970
132.00 0.63889
132.50 0.65069
133.00 0.66369
133.50 0.67674
134.00 0.69033
134.50 0.70509
135.00 0.71983
135.50 0.73585
136.00 0.75197
136.50 0.76862
137.00 0.78570
137.50 0.80328
138.00 0.82137
138.50 0.83951
139.00 0.85829
139.50 0.87715
140.00 0.89674
140.50 0.91665
141.00 0.93662
141.50 0.95679
142.00 0.97699
142.50 0.99658
143.00 1.01604
143.50 1.03672
144.00 1.05748
144.50 1.07384
145.00 1.09015
145.50 1.10774
146.00 1.12537
146.50 1.14301
147.00 1.15997
147.50 1.17346
148.00 1.18699
148.50 1.20211
149.00 1.21765
149.50 1.23325
150.00 1.24890
150.50 1.26377
151.00 1.27810
151.50 1.29398
152.00 1.30949
152.50 1.32458
153.00 1.33972
153.50 1.35491
154.00 1.37021
154.50 1.38561
155.00 1.40106
155.50 1.41192
156.00 1.42276
156.50 1.43360
157.00 1.44182
157.50 1.44764
158.00 1.45349
158.50 1.45818
159.00 1.46273
159.50 1.46732
160.00 1.47195
160.50 1.47319
161.00 1.47419
161.50 1.47514
162.00 1.47739
162.50 1.48016
163.00 1.48302
163.50 1.48598
164.00 1.48819
164.50 1.49042
165.00 1.49263
165.50 1.49445
166.00 1.49636
166.50 1.49835
167.00 1.50003
167.50 1.50177
168.00 1.50297
168.50 1.50260
169.00 1.50232
169.50 1.50212
170.00 1.50168
170.50 1.49991
171.00 1.49764
171.50 1.49567
172.00 1.49486
172.50 1.49417
173.00 1.49360
173.50 1.49315
174.00 1.49272
174.50 1.49240
175.00 1.49226
175.50 1.49239
176.00 1.49264
176.50 1.49319
177.00 1.49391
177.50 1.49474
178.00 1.49570
178.50 1.49634
179.00 1.49701
179.50 1.49780
180.00 1.49868
180.00 1.49868
180.50 1.49780
181.00 1.49701
181.50 1.49634
182.00 1.49570
182.50 1.49474
183.00 1.49391
183.50 1.49319
184.00 1.49264
184.50 1.49239
185.00 1.49226
185.50 1.49240
186.00 1.49272
186.50 1.49315
187.00 1.49360
187.50 1.49417
188.00 1.49486
188.50 1.49567
189.00 1.49764
189.50 1.49991
190.00 1.50168
190.50 1.50212
191.00 1.50232
191.50 1.50260
192.00 1.50297
192.50 1.50177
193.00 1.50003
193.50 1.49835
194.00 1.49636
194.50 1.49445
195.00 1.49263
195.50 1.49042
196.00 1.48819
196.50 1.48598
197.00 1.48302
197.50 1.48016
198.00 1.47739
198.50 1.47514
199.00 1.47419
199.50 1.47319
200.00 1.47195
200.50 1.46732
201.00 1.46273
201.50 1.45818
202.00 1.45349
202.50 1.44764
203.00 1.44182
203.50 1.43360
204.00 1.42276
204.50 1.41192
205.00 1.40106
205.50 1.38561
206.00 1.37021
206.50 1.35491
207.00 1.33972
207.50 1.32458
208.00 1.30949
208.50 1.29398
209.00 1.27810
209.50 1.26377
210.00 1.24890
210.50 1.23325
211.00 1.21765
211.50 1.20211
212.00 1.18699
212.50 1.17346
213.00 1.15997
213.50 1.14301
214.00 1.12537
214.50 1.10774
215.00 1.09015
215.50 1.07384
216.00 1.05748
216.50 1.03672
217.00 1.01604
217.50 0.99658
218.00 0.97699
218.50 0.95679
219.00 0.93662
219.50 0.91665
220.00 0.89674
220.50 0.87715
221.00 0.85829
221.50 0.83951
222.00 0.82137
222.50 0.80328
223.00 0.78570
223.50 0.76862
224.00 0.75197
224.50 0.73585
225.00 0.71983
225.50 0.70509
226.00 0.69033
226.50 0.67674
227.00 0.66369
227.50 0.65069
228.00 0.63889
228.50 0.62970
229.00 0.61931
229.50 0.60747
230.00 0.59564
230.50 0.58645
231.00 0.57933
231.50 0.56957
232.00 0.55632
232.50 0.54300
233.00 0.52962
233.50 0.51842
234.00 0.50934
234.50 0.49486
235.00 0.47651
235.50 0.45799
236.00 0.43930
236.50 0.42044
237.00 0.40295
237.50 0.38555
238.00 0.35653
238.50 0.33213
239.00 0.30925
239.50 0.28623
240.00 0.26273
240.50 0.23699
241.00 0.21113
241.50 0.18515
242.00 0.16167
242.50 0.14227
243.00 0.12806
243.50 0.11376
244.00 0.09933
244.50 0.08488
245.00 0.07040
245.50 0.06235
246.00 0.05517
246.50 0.04799
247.00 0.04099
247.50 0.03404
248.00 0.03012
248.50 0.02660
249.00 0.02318
249.50 0.01976
250.00 0.01634
250.50 0.01460
251.00 0.01293
251.50 0.01126
252.00 0.00959
252.50 0.00801
253.00 0.00701
253.50 0.00624
254.00 0.00549
254.50 0.00475
255.00 0.00400
255.50 0.00342
256.00 0.00302
256.50 0.00263
257.00 0.00226
257.50 0.00193
258.00 0.00168
258.50 0.00150
259.00 0.00133
259.50 0.00117
260.00 0.00101
260.50 0.00086
261.00 0.00076
261.50 0.00067
262.00 0.00059
262.50 0.00053
263.00 0.00047
263.50 0.00042
264.00 0.00037
264.50 0.00032
265.00 0.00029
265.50 0.00026
266.00 0.00022
266.50 0.00019
267.00 0.00017
267.50 0.00014
268.00 0.00012
268.50 0.00010
269.00 0.00009
269.50 0.00008
270.00 0.00006
270.00 0.00006
270.50 0.00008
271.00 0.00009
271.50 0.00010
272.00 0.00012
272.50 0.00014
273.00 0.00017
273.50 0.00019
274.00 0.00022
274.50 0.00026
275.00 0.00029
275.50 0.00032
276.00 0.00037
276.50 0.00042
277.00 0.00047
277.50 0.00053
278.00 0.00059
278.50 0.00067
279.00 0.00076
279.50 0.00086
280.00 0.00101
280.50 0.00117
281.00 0.00133
281.50 0.00150
282.00 0.00168
282.50 0.00193
283.00 0.00226
283.50 0.00263
284.00 0.00302
284.50 0.00342
285.00 0.00400
285.50 0.00475
286.00 0.00549
286.50 0.00624
287.00 0.00701
287.50 0.00801
288.00 0.00959
288.50 0.01126
289.00 0.01293
289.50 0.01460
290.00 0.01634
290.50 0.01976
291.00 0.02318
291.50 0.02660
292.00 0.03012
292.50 0.03404
293.00 0.04099
293.50 0.04799
294.00 0.05517
294.50 0.06235
295.00 0.07040
295.50 0.08488
296.00 0.09933
296.50 0.11376
297.00 0.12806
297.50 0.14227
298.00 0.16167
298.50 0.18515
299.00 0.21113
299.50 0.23699
300.00 0.26273
300.50 0.28623
301.00 0.30925
301.50 0.33213
302.00 0.35653
302.50 0.38555
303.00 0.40295
303.50 0.42044
304.00 0.43930
304.50 0.45799
305.00 0.47651
305.50 0.49486
306.00 0.50934
306.50 0.51842
307.00 0.52962
307.50 0.54300
308.00 0.55632
308.50 0.56957
309.00 0.57933
309.50 0.58645
310.00 0.59564
310.50 0.60747
311.00 0.61931
311.50 0.62970
312.00 0.63889
312.50 0.65069
313.00 0.66369
313.50 0.67674
314.00 0.69033
314.50 0.70509
315.00 0.71983
315.50 0.73585
316.00 0.75197
316.50 0.76862
317.00 0.78570
317.50 0.80328
318.00 0.82137
318.50 0.83951
319.00 0.85829
319.50 0.87715
320.00 0.89674
320.50 0.91665
321.00 0.93662
321.50 0.95679
322.00 0.97699
322.50 0.99658
323.00 1.01604
323.50 1.03672
324.00 1.05748
324.50 1.07384
325.00 1.09015
325.50 1.10774
326.00 1.12537
326.50 1.14301
327.00 1.15997
327.50 1.17346
328.00 1.18699
328.50 1.20211
329.00 1.21765
329.50 1.23325
330.00 1.24890
330.50 1.26377
331.00 1.27810
331.50 1.29398
332.00 1.30949
332.50 1.32458
333.00 1.33972
333.50 1.35491
334.00 1.37021
334.50 1.38561
335.00 1.40106
335.50 1.41192
336.00 1.42276
336.50 1.43360
337.00 1.44182
337.50 1.44764
338.00 1.45349
338.50 1.45818
339.00 1.46273
339.50 1.46732
340.00 1.47195
340.50 1.47319
341.00 1.47419
341.50 1.47514
342.00 1.47739
342.50 1.48016
343.00 1.48302
343.50 1.48598
344.00 1.48819
344.50 1.49042
345.00 1.49263
345.50 1.49445
346.00 1.49636
346.50 1.49835
347.00 1.50003
347.50 1.50177
348.00 1.50297
348.50 1.50260
349.00 1.50232
349.50 1.50212
350.00 1.50168
350.50 1.49991
351.00 1.49764
351.50 1.49567
352.00 1.49486
352.50 1.49417
353.00 1.49360
353.50 1.49315
354.00 1.49272
354.50 1.49240
355.00 1.49226
355.50 1.49239
356.00 1.49264
356.50 1.49319
357.00 1.49391
357.50 1.49474
358.00 1.49570
358.50 1.49634
359.00 1.49701
359.50 1.49780
360.00 1.49868
