phi[deg] B[T]
0.00 1.43303
0.50 1.43236
1.00 1.43193
1.50 1.43195
2.00 1.43202
2.50 1.43201
3.00 1.43137
3.50 1.43078
4.00 1.43024
4.50 1.42944
5.00 1.42861
5.50 1.42782
6.00 1.42708
6.50 1.42639
7.00 1.42575
7.50 1.42342
8.00 1.41945
8.50 1.41599
9.00 1.41312
9.50 1.41027
10.00 1.40744
10.50 1.40464
11.00 1.40186
11.50 1.39911
12.00 1.39266
12.50 1.38630
13.00 1.38081
13.50 1.37529
14.00 1.36973
14.50 1.36414
15.00 1.35666
15.50 1.34705
16.00 1.33742
16.50 1.32775
17.00 1.31788
17.50 1.30411
18.00 1.29273
18.50 1.28126
19.00 1.26970
19.50 1.25805
20.00 1.24277
20.50 1.22622
21.00 1.20959
21.50 1.19287
22.00 1.17431
22.50 1.15232
23.00 1.13022
23.50 1.11092
24.00 1.09186
24.50 1.07266
25.00 1.05333
25.50 1.02764
26.00 1.00136
26.50 0.97495
27.00 0.94840
27.50 0.92133
28.00 0.89520
28.50 0.86961
29.00 0.84388
29.50 0.81800
30.00 0.79027
30.50 0.75954
31.00 0.72868
31.50 0.69769
32.00 0.66657
32.50 0.63573
33.00 0.60747
33.50 0.57857
34.00 0.54958
34.50 0.52050
35.00 0.49135
35.50 0.46211
36.00 0.43445
36.50 0.41074
37.00 0.38688
37.50 0.36298
38.00 0.33902
38.50 0.31503
39.00 0.29099
39.50 0.27318
40.00 0.25592
40.50 0.23863
41.00 0.22126
41.50 0.20364
42.00 0.18599
42.50 0.17400
43.00 0.16242
43.50 0.15106
44.00 0.13970
44.50 0.12834
45.00 0.11698
45.50 0.10960
46.00 0.10221
46.50 0.09483
47.00 0.08744
47.50 0.07990
48.00 0.07314
48.50 0.06834
49.00 0.06364
49.50 0.05903
50.00 0.05443
50.50 0.04983
51.00 0.04537
51.50 0.04257
52.00 0.03977
52.50 0.03697
53.00 0.03418
53.50 0.03138
54.00 0.02865
54.50 0.02610
55.00 0.02455
55.50 0.02300
56.00 0.02145
56.50 0.01990
57.00 0.01835
57.50 0.01680
58.00 0.01524
58.50 0.01396
59.00 0.01313
59.50 0.01231
60.00 0.01148
60.50 0.01065
61.00 0.00983
61.50 0.00900
62.00 0.00818
62.50 0.00742
63.00 0.00694
63.50 0.00652
64.00 0.00609
64.50 0.00567
65.00 0.00525
65.50 0.00483
66.00 0.00442
66.50 0.00400
67.00 0.00370
67.50 0.00347
68.00 0.00324
68.50 0.00300
69.00 0.00277
69.50 0.00253
70.00 0.00230
70.50 0.00216
71.00 0.00202
71.50 0.00188
72.00 0.00174
72.50 0.00160
73.00 0.00146
73.50 0.00136
74.00 0.00128
74.50 0.00120
75.00 0.00112
75.50 0.00104
76.00 0.00096
76.50 0.00087
77.00 0.00079
77.50 0.00074
78.00 0.00069
78.50 0.00065
79.00 0.00061
79.50 0.00057
80.00 0.00052
80.50 0.00048
81.00 0.00044
81.50 0.00041
82.00 0.00038
82.50 0.00036
83.00 0.00033
83.50 0.00031
84.00 0.00028
84.50 0.00027
85.00 0.00026
85.50 0.00024
86.00 0.00023
86.50 0.00022
87.00 0.00020
87.50 0.00019
88.00 0.00019
88.50 0.00018
89.00 0.00018
89.50 0.00017
90.00 0.00017
90.00 0.00017
90.50 0.00017
91.00 0.00018
91.50 0.00018
92.00 0.00019
92.50 0.00019
93.00 0.00020
93.50 0.00022
94.00 0.00023
94.50 0.00024
95.00 0.00026
95.50 0.00027
96.00 0.00028
96.50 0.00031
97.00 0.00033
97.50 0.00036
98.00 0.00038
98.50 0.00041
99.00 0.00044
99.50 0.00048
100.00 0.00052
100.50 0.00057
101.00 0.00061
101.50 0.00065
102.00 0.00069
102.50 0.00074
103.00 0.00079
103.50 0.00087
104.00 0.00096
104.50 0.00104
105.00 0.00112
105.50 0.00120
106.00 0.00128
106.50 0.00136
107.00 0.00146
107.50 0.00160
108.00 0.00174
108.50 0.00188
109.00 0.00202
109.50 0.00216
110.00 0.00230
110.50 0.00253
111.00 0.00277
111.50 0.00300
112.00 0.00324
112.50 0.00347
113.00 0.00370
113.50 0.00400
114.00 0.00442
114.50 0.00483
115.00 0.00525
115.50 0.00567
116.00 0.00609
116.50 0.00652
117.00 0.00694
117.50 0.00742
118.00 0.00818
118.50 0.00900
119.00 0.00983
119.50 0.01065
120.00 0.01148
120.50 0.01231
121.00 0.01313
121.50 0.01396
122.00 0.01524
122.50 0.01680
123.00 0.01835
123.50 0.01990
124.00 0.02145
124.50 0.02300
125.00 0.02455
125.50 0.02610
126.00 0.02865
126.50 0.03138
127.00 0.03418
127.50 0.03697
128.00 0.03977
128.50 0.04257
129.00 0.04537
129.50 0.04983
130.00 0.05443
130.50 0.05903
131.00 0.06364
131.50 0.06834
132.00 0.07314
132.50 0.07990
133.00 0.08744
133.50 0.09483
134.00 0.10221
134.50 0.10960
135.00 0.11698
135.50 0.12834
136.00 0.13970
136.50 0.15106
137.00 0.16242
137.50 0.17400
138.00 0.18599
138.50 0.20364
139.00 0.22126
139.50 0.23863
140.00 0.25592
140.50 0.27318
141.00 0.29099
141.50 0.31503
142.00 0.33902
142.50 0.36298
143.00 0.38688
143.50 0.41074
144.00 0.43445
144.50 0.46211
145.00 0.49135
145.50 0.52050
146.00 0.54958
146.50 0.57857
147.00 0.60747
147.50 0.63573
148.00 0.66657
148.50 0.69769
149.00 0.72868
149.50 0.75954
150.00 0.79027
150.50 0.81800
151.00 0.84388
151.50 0.86961
152.00 0.89520
152.50 0.92133
153.00 0.94840
153.50 0.97495
154.00 1.00136
154.50 1.02764
155.00 1.05333
155.50 1.07266
156.00 1.09186
156.50 1.11092
157.00 1.13022
157.50 1.15232
158.00 1.17431
158.50 1.19287
159.00 1.20959
159.50 1.22622
160.00 1.24277
160.50 1.25805
161.00 1.26970
161.50 1.28126
162.00 1.29273
162.50 1.30411
163.00 1.31788
163.50 1.32775
164.00 1.33742
164.50 1.34705
165.00 1.35666
165.50 1.36414
166.00 1.36973
166.50 1.37529
167.00 1.38081
167.50 1.38630
168.00 1.39266
168.50 1.39911
169.00 1.40186
169.50 1.40464
170.00 1.40744
170.50 1.41027
171.00 1.41312
171.50 1.41599
172.00 1.41945
172.50 1.42342
173.00 1.42575
173.50 1.42639
174.00 1.42708
174.50 1.42782
175.00 1.42861
175.50 1.42944
176.00 1.43024
176.50 1.43078
177.00 1.43137
177.50 1.43201
178.00 1.43202
178.50 1.43195
179.00 1.43193
179.50 1.43236
180.00 1.43303
180.00 1.43303
180.50 1.43236
181.00 1.43193
181.50 1.43195
182.00 1.43202
182.50 1.43201
183.00 1.43137
183.50 1.43078
184.00 1.43024
184.50 1.42944
185.00 1.42861
185.50 1.42782
186.00 1.42708
186.50 1.42639
187.00 1.42575
187.50 1.42342
188.00 1.41945
188.50 1.41599
189.00 1.41312
189.50 1.41027
190.00 1.40744
190.50 1.40464
191.00 1.40186
191.50 1.39911
192.00 1.39266
192.50 1.38630
193.00 1.38081
193.50 1.37529
194.00 1.36973
194.50 1.36414
195.00 1.35666
195.50 1.34705
196.00 1.33742
196.50 1.32775
197.00 1.31788
197.50 1.30411
198.00 1.29273
198.50 1.28126
199.00 1.26970
199.50 1.25805
200.00 1.24277
200.50 1.22622
201.00 1.20959
201.50 1.19287
202.00 1.17431
202.50 1.15232
203.00 1.13022
203.50 1.11092
204.00 1.09186
204.50 1.07266
205.00 1.05333
205.50 1.02764
206.00 1.00136
206.50 0.97495
207.00 0.94840
207.50 0.92133
208.00 0.89520
208.50 0.86961
209.00 0.84388
209.50 0.81800
210.00 0.79027
210.50 0.75954
211.00 0.72868
211.50 0.69769
212.00 0.66657
212.50 0.63573
213.00 0.60747
213.50 0.57857
214.00 0.54958
214.50 0.52050
215.00 0.49135
215.50 0.46211
216.00 0.43445
216.50 0.41074
217.00 0.38688
217.50 0.36298
218.00 0.33902
218.50 0.31503
219.00 0.29099
219.50 0.27318
220.00 0.25592
220.50 0.23863
221.00 0.22126
221.50 0.20364
222.00 0.18599
222.50 0.17400
223.00 0.16242
223.50 0.15106
224.00 0.13970
224.50 0.12834
225.00 0.11698
225.50 0.10960
226.00 0.10221
226.50 0.09483
227.00 0.08744
227.50 0.07990
228.00 0.07314
228.50 0.06834
229.00 0.06364
229.50 0.05903
230.00 0.05443
230.50 0.04983
231.00 0.04537
231.50 0.04257
232.00 0.03977
232.50 0.03697
233.00 0.03418
233.50 0.03138
234.00 0.02865
234.50 0.02610
235.00 0.02455
235.50 0.02300
236.00 0.02145
236.50 0.01990
237.00 0.01835
237.50 0.01680
238.00 0.01524
238.50 0.01396
239.00 0.01313
239.50 0.01231
240.00 0.01148
240.50 0.01065
241.00 0.00983
241.50 0.00900
242.00 0.00818
242.50 0.00742
243.00 0.00694
243.50 0.00652
244.00 0.00609
244.50 0.00567
245.00 0.00525
245.50 0.00483
246.00 0.00442
246.50 0.00400
247.00 0.00370
247.50 0.00347
248.00 0.00324
248.50 0.00300
249.00 0.00277
249.50 0.00253
250.00 0.00230
250.50 0.00216
251.00 0.00202
251.50 0.00188
252.00 0.00174
252.50 0.00160
253.00 0.00146
253.50 0.00136
254.00 0.00128
254.50 0.00120
255.00 0.00112
255.50 0.00104
256.00 0.00096
256.50 0.00087
257.00 0.00079
257.50 0.00074
258.00 0.00069
258.50 0.00065
259.00 0.00061
259.50 0.00057
260.00 0.00052
260.50 0.00048
261.00 0.00044
261.50 0.00041
262.00 0.00038
262.50 0.00036
263.00 0.00033
263.50 0.00031
264.00 0.00028
264.50 0.00027
265.00 0.00026
265.50 0.00024
266.00 0.00023
266.50 0.00022
267.00 0.00020
267.50 0.00019
268.00 0.00019
268.50 0.00018
269.00 0.00018
269.50 0.00017
270.00 0.00017
270.00 0.00017
270.50 0.00017
271.00 0.00018
271.50 0.00018
272.00 0.00019
272.50 0.00019
273.00 0.00020
273.50 0.00022
274.00 0.00023
274.50 0.00024
275.00 0.00026
275.50 0.00027
276.00 0.00028
276.50 0.00031
277.00 0.00033
277.50 0.00036
278.00 0.00038
278.50 0.00041
279.00 0.00044
279.50 0.00048
280.00 0.00052
280.50 0.00057
281.00 0.00061
281.50 0.00065
282.00 0.00069
282.50 0.00074
283.00 0.00079
283.50 0.00087
284.00 0.00096
284.50 0.00104
285.00 0.00112
285.50 0.00120
286.00 0.00128
286.50 0.00136
287.00 0.00146
287.50 0.00160
288.00 0.00174
288.50 0.00188
289.00 0.00202
289.50 0.00216
290.00 0.00230
290.50 0.00253
291.00 0.00277
291.50 0.00300
292.00 0.00324
292.50 0.00347
293.00 0.00370
293.50 0.00400
294.00 0.00442
294.50 0.00483
295.00 0.00525
295.50 0.00567
296.00 0.00609
296.50 0.00652
297.00 0.00694
297.50 0.00742
298.00 0.00818
298.50 0.00900
299.00 0.00983
299.50 0.01065
300.00 0.01148
300.50 0.01231
301.00 0.01313
301.50 0.01396
302.00 0.01524
302.50 0.01680
303.00 0.01835
303.50 0.01990
304.00 0.02145
304.50 0.02300
305.00 0.02455
305.50 0.02610
306.00 0.02865
306.50 0.03138
307.00 0.03418
307.50 0.03697
308.00 0.03977
308.50 0.04257
309.00 0.04537
309.50 0.04983
310.00 0.05443
310.50 0.05903
311.00 0.06364
311.50 0.06834
312.00 0.07314
312.50 0.07990
313.00 0.08744
313.50 0.09483
314.00 0.10221
314.50 0.10960
315.00 0.11698
315.50 0.12834
316.00 0.13970
316.50 0.15106
317.00 0.16242
317.50 0.17400
318.00 0.18599
318.50 0.20364
319.00 0.22126
319.50 0.23863
320.00 0.25592
320.50 0.27318
321.00 0.29099
321.50 0.31503
322.00 0.33902
322.50 0.36298
323.00 0.38688
323.50 0.41074
324.00 0.43445
324.50 0.46211
325.00 0.49135
325.50 0.52050
326.00 0.54958
326.50 0.57857
327.00 0.60747
327.50 0.63573
328.00 0.66657
328.50 0.69769
329.00 0.72868
329.50 0.75954
330.00 0.79027
330.50 0.81800
331.00 0.84388
331.50 0.86961
332.00 0.89520
332.50 0.92133
333.00 0.94840
333.50 0.97495
334.00 1.00136
334.50 1.02764
335.00 1.05333
335.50 1.07266
336.00 1.09186
336.50 1.11092
337.00 1.13022
337.50 1.15232
338.00 1.17431
338.50 1.19287
339.00 1.20959
339.50 1.22622
340.00 1.24277
340.50 1.25805
341.00 1.26970
341.50 1.28126
342.00 1.29273
342.50 1.30411
343.00 1.31788
343.50 1.32775
344.00 1.33742
344.50 1.34705
345.00 1.35666
345.50 1.36414
346.00 1.36973
346.50 1.37529
347.00 1.38081
347.50 1.38630
348.00 1.39266
348.50 1.39911
349.00 1.40186
349.50 1.40464
350.00 1.40744
350.50 1.41027
351.00 1.41312
351.50 1.41599
352.00 1.41945
352.50 1.42342
353.00 1.42575
353.50 1.42639
354.00 1.42708
354.50 1.42782
355.00 1.42861
355.50 1.42944
356.00 1.43024
356.50 1.43078
357.00 1.43137
357.50 1.43201
358.00 1.43202
358.50 1.43195
359.00 1.43193
359.50 1.43236
360.00 1.43303
