phi[deg] B[T]
0.00 1.13041
0.50 1.12976
1.00 1.12947
1.50 1.12934
2.00 1.12900
2.50 1.12799
3.00 1.12704
3.50 1.12592
4.00 1.12464
4.50 1.12321
5.00 1.12183
5.50 1.11977
6.00 1.11731
6.50 1.11536
7.00 1.11345
7.50 1.11057
8.00 1.10722
8.50 1.10391
9.00 1.10064
9.50 1.09705
10.00 1.09287
10.50 1.08869
11.00 1.08451
11.50 1.08034
12.00 1.07687
12.50 1.07370
13.00 1.06716
13.50 1.06060
14.00 1.05402
14.50 1.04731
15.00 1.03984
15.50 1.03251
16.00 1.02512
16.50 1.01824
17.00 1.01268
17.50 1.00129
18.00 0.98980
18.50 0.97823
19.00 0.96628
19.50 0.95314
20.00 0.93983
20.50 0.92634
21.00 0.91282
21.50 0.89984
22.00 0.87757
22.50 0.85452
23.00 0.83126
23.50 0.80852
24.00 0.78126
24.50 0.75380
25.00 0.72728
25.50 0.70048
26.00 0.67340
26.50 0.64367
27.00 0.60576
27.50 0.56772
28.00 0.53531
28.50 0.50273
29.00 0.46998
29.50 0.43388
30.00 0.39753
30.50 0.37031
31.00 0.34301
31.50 0.31563
32.00 0.28641
32.50 0.25574
33.00 0.23130
33.50 0.21030
34.00 0.19461
34.50 0.17892
35.00 0.16323
35.50 0.14754
36.00 0.13186
36.50 0.11657
37.00 0.10308
37.50 0.09150
38.00 0.08430
38.50 0.07710
39.00 0.06955
39.50 0.06197
40.00 0.05440
40.50 0.04903
41.00 0.04484
41.50 0.04064
42.00 0.03644
42.50 0.03222
43.00 0.02916
43.50 0.02660
44.00 0.02404
44.50 0.02148
45.00 0.01892
45.50 0.01737
46.00 0.01583
46.50 0.01428
47.00 0.01273
47.50 0.01119
48.00 0.01028
48.50 0.00940
49.00 0.00853
49.50 0.00766
50.00 0.00678
50.50 0.00608
51.00 0.00546
51.50 0.00496
52.00 0.00456
52.50 0.00416
53.00 0.00376
53.50 0.00336
54.00 0.00299
54.50 0.00263
55.00 0.00243
55.50 0.00226
56.00 0.00208
56.50 0.00190
57.00 0.00173
57.50 0.00155
58.00 0.00137
58.50 0.00123
59.00 0.00115
59.50 0.00107
60.00 0.00099
60.50 0.00091
61.00 0.00083
61.50 0.00075
62.00 0.00067
62.50 0.00061
63.00 0.00058
63.50 0.00054
64.00 0.00051
64.50 0.00048
65.00 0.00045
65.50 0.00042
66.00 0.00038
66.50 0.00036
67.00 0.00035
67.50 0.00033
68.00 0.00032
68.50 0.00030
69.00 0.00028
69.50 0.00027
70.00 0.00026
70.50 0.00025
71.00 0.00024
71.50 0.00024
72.00 0.00023
72.50 0.00022
73.00 0.00021
73.50 0.00020
74.00 0.00020
74.50 0.00019
75.00 0.00018
75.50 0.00018
76.00 0.00017
76.50 0.00016
77.00 0.00016
77.50 0.00015
78.00 0.00015
78.50 0.00014
79.00 0.00013
79.50 0.00013
80.00 0.00012
80.50 0.00011
81.00 0.00011
81.50 0.00010
82.00 0.00010
82.50 0.00009
83.00 0.00009
83.50 0.00008
84.00 0.00007
84.50 0.00007
85.00 0.00006
85.50 0.00006
86.00 0.00005
86.50 0.00004
87.00 0.00004
87.50 0.00003
88.00 0.00003
88.50 0.00002
89.00 0.00002
89.50 0.00002
90.00 0.00002
90.00 0.00002
90.50 0.00002
91.00 0.00002
91.50 0.00002
92.00 0.00003
92.50 0.00003
93.00 0.00004
93.50 0.00004
94.00 0.00005
94.50 0.00006
95.00 0.00006
95.50 0.00007
96.00 0.00007
96.50 0.00008
97.00 0.00009
97.50 0.00009
98.00 0.00010
98.50 0.00010
99.00 0.00011
99.50 0.00011
100.00 0.00012
100.50 0.00013
101.00 0.00013
101.50 0.00014
102.00 0.00015
102.50 0.00015
103.00 0.00016
103.50 0.00016
104.00 0.00017
104.50 0.00018
105.00 0.00018
105.50 0.00019
106.00 0.00020
106.50 0.00020
107.00 0.00021
107.50 0.00022
108.00 0.00023
108.50 0.00024
109.00 0.00024
109.50 0.00025
110.00 0.00026
110.50 0.00027
111.00 0.00028
111.50 0.00030
112.00 0.00032
112.50 0.00033
113.00 0.00035
113.50 0.00036
114.00 0.00038
114.50 0.00042
115.00 0.00045
115.50 0.00048
116.00 0.00051
116.50 0.00054
117.00 0.00058
117.50 0.00061
118.00 0.00067
118.50 0.00075
119.00 0.00083
119.50 0.00091
120.00 0.00099
120.50 0.00107
121.00 0.00115
121.50 0.00123
122.00 0.00137
122.50 0.00155
123.00 0.00173
123.50 0.00190
124.00 0.00208
124.50 0.00226
125.00 0.00243
125.50 0.00263
126.00 0.00299
126.50 0.00336
127.00 0.00376
127.50 0.00416
128.00 0.00456
128.50 0.00496
129.00 0.00546
129.50 0.00608
130.00 0.00678
130.50 0.00766
131.00 0.00853
131.50 0.00940
132.00 0.01028
132.50 0.01119
133.00 0.01273
133.50 0.01428
134.00 0.01583
134.50 0.01737
135.00 0.01892
135.50 0.02148
136.00 0.02404
136.50 0.02660
137.00 0.02916
137.50 0.03222
138.00 0.03644
138.50 0.04064
139.00 0.04484
139.50 0.04903
140.00 0.05440
140.50 0.06197
141.00 0.06955
141.50 0.07710
142.00 0.08430
142.50 0.09150
143.00 0.10308
143.50 0.11657
144.00 0.13186
144.50 0.14754
145.00 0.16323
145.50 0.17892
146.00 0.19461
146.50 0.21030
147.00 0.23130
147.50 0.25574
148.00 0.28641
148.50 0.31563
149.00 0.34301
149.50 0.37031
150.00 0.39753
150.50 0.43388
151.00 0.46998
151.50 0.50273
152.00 0.53531
152.50 0.56772
153.00 0.60576
153.50 0.64367
154.00 0.67340
154.50 0.70048
155.00 0.72728
155.50 0.75380
156.00 0.78126
156.50 0.80852
157.00 0.83126
157.50 0.85452
158.00 0.87757
158.50 0.89984
159.00 0.91282
159.50 0.92634
160.00 0.93983
160.50 0.95314
161.00 0.96628
161.50 0.97823
162.00 0.98980
162.50 1.00129
163.00 1.01268
163.50 1.01824
164.00 1.02512
164.50 1.03251
165.00 1.03984
165.50 1.04731
166.00 1.05402
166.50 1.06060
167.00 1.06716
167.50 1.07370
168.00 1.07687
168.50 1.08034
169.00 1.08451
169.50 1.08869
170.00 1.09287
170.50 1.09705
171.00 1.10064
171.50 1.10391
172.00 1.10722
172.50 1.11057
173.00 1.11345
173.50 1.11536
174.00 1.11731
174.50 1.11977
175.00 1.12183
175.50 1.12321
176.00 1.12464
176.50 1.12592
177.00 1.12704
177.50 1.12799
178.00 1.12900
178.50 1.12934
179.00 1.12947
179.50 1.12976
180.00 1.13041
180.00 1.13041
180.50 1.12976
181.00 1.12947
181.50 1.12934
182.00 1.12900
182.50 1.12799
183.00 1.12704
183.50 1.12592
184.00 1.12464
184.50 1.12321
185.00 1.12183
185.50 1.11977
186.00 1.11731
186.50 1.11536
187.00 1.11345
187.50 1.11057
188.00 1.10722
188.50 1.10391
189.00 1.10064
189.50 1.09705
190.00 1.09287
190.50 1.08869
191.00 1.08451
191.50 1.08034
192.00 1.07687
192.50 1.07370
193.00 1.06716
193.50 1.06060
194.00 1.05402
194.50 1.04731
195.00 1.03984
195.50 1.03251
196.00 1.02512
196.50 1.01824
197.00 1.01268
197.50 1.00129
198.00 0.98980
198.50 0.97823
199.00 0.96628
199.50 0.95314
200.00 0.93983
200.50 0.92634
201.00 0.91282
201.50 0.89984
202.00 0.87757
202.50 0.85452
203.00 0.83126
203.50 0.80852
204.00 0.78126
204.50 0.75380
205.00 0.72728
205.50 0.70048
206.00 0.67340
206.50 0.64367
207.00 0.60576
207.50 0.56772
208.00 0.53531
208.50 0.50273
209.00 0.46998
209.50 0.43388
210.00 0.39753
210.50 0.37031
211.00 0.34301
211.50 0.31563
212.00 0.28641
212.50 0.25574
213.00 0.23130
213.50 0.21030
214.00 0.19461
214.50 0.17892
215.00 0.16323
215.50 0.14754
216.00 0.13186
216.50 0.11657
217.00 0.10308
217.50 0.09150
218.00 0.08430
218.50 0.07710
219.00 0.06955
219.50 0.06197
220.00 0.05440
220.50 0.04903
221.00 0.04484
221.50 0.04064
222.00 0.03644
222.50 0.03222
223.00 0.02916
223.50 0.02660
224.00 0.02404
224.50 0.02148
225.00 0.01892
225.50 0.01737
226.00 0.01583
226.50 0.01428
227.00 0.01273
227.50 0.01119
228.00 0.01028
228.50 0.00940
229.00 0.00853
229.50 0.00766
230.00 0.00678
230.50 0.00608
231.00 0.00546
231.50 0.00496
232.00 0.00456
232.50 0.00416
233.00 0.00376
233.50 0.00336
234.00 0.00299
234.50 0.00263
235.00 0.00243
235.50 0.00226
236.00 0.00208
236.50 0.00190
237.00 0.00173
237.50 0.00155
238.00 0.00137
238.50 0.00123
239.00 0.00115
239.50 0.00107
240.00 0.00099
240.50 0.00091
241.00 0.00083
241.50 0.00075
242.00 0.00067
242.50 0.00061
243.00 0.00058
243.50 0.00054
244.00 0.00051
244.50 0.00048
245.00 0.00045
245.50 0.00042
246.00 0.00038
246.50 0.00036
247.00 0.00035
247.50 0.00033
248.00 0.00032
248.50 0.00030
249.00 0.00028
249.50 0.00027
250.00 0.00026
250.50 0.00025
251.00 0.00024
251.50 0.00024
252.00 0.00023
252.50 0.00022
253.00 0.00021
253.50 0.00020
254.00 0.00020
254.50 0.00019
255.00 0.00018
255.50 0.00018
256.00 0.00017
256.50 0.00016
257.00 0.00016
257.50 0.00015
258.00 0.00015
258.50 0.00014
259.00 0.00013
259.50 0.00013
260.00 0.00012
260.50 0.00011
261.00 0.00011
261.50 0.00010
262.00 0.00010
262.50 0.00009
263.00 0.00009
263.50 0.00008
264.00 0.00007
264.50 0.00007
265.00 0.00006
265.50 0.00006
266.00 0.00005
266.50 0.00004
267.00 0.00004
267.50 0.00003
268.00 0.00003
268.50 0.00002
269.00 0.00002
269.50 0.00002
270.00 0.00002
270.00 0.00002
270.50 0.00002
271.00 0.00002
271.50 0.00002
272.00 0.00003
272.50 0.00003
273.00 0.00004
273.50 0.00004
274.00 0.00005
274.50 0.00006
275.00 0.00006
275.50 0.00007
276.00 0.00007
276.50 0.00008
277.00 0.00009
277.50 0.00009
278.00 0.00010
278.50 0.00010
279.00 0.00011
279.50 0.00011
280.00 0.00012
280.50 0.00013
281.00 0.00013
281.50 0.00014
282.00 0.00015
282.50 0.00015
283.00 0.00016
283.50 0.00016
284.00 0.00017
284.50 0.00018
285.00 0.00018
285.50 0.00019
286.00 0.00020
286.50 0.00020
287.00 0.00021
287.50 0.00022
288.00 0.00023
288.50 0.00024
289.00 0.00024
289.50 0.00025
290.00 0.00026
290.50 0.00027
291.00 0.00028
291.50 0.00030
292.00 0.00032
292.50 0.00033
293.00 0.00035
293.50 0.00036
294.00 0.00038
294.50 0.00042
295.00 0.00045
295.50 0.00048
296.00 0.00051
296.50 0.00054
297.00 0.00058
297.50 0.00061
298.00 0.00067
298.50 0.00075
299.00 0.00083
299.50 0.00091
300.00 0.00099
300.50 0.00107
301.00 0.00115
301.50 0.00123
302.00 0.00137
302.50 0.00155
303.00 0.00173
303.50 0.00190
304.00 0.00208
304.50 0.00226
305.00 0.00243
305.50 0.00263
306.00 0.00299
306.50 0.00336
307.00 0.00376
307.50 0.00416
308.00 0.00456
308.50 0.00496
309.00 0.00546
309.50 0.00608
310.00 0.00678
310.50 0.00766
311.00 0.00853
311.50 0.00940
312.00 0.01028
312.50 0.01119
313.00 0.01273
313.50 0.01428
314.00 0.01583
314.50 0.01737
315.00 0.01892
315.50 0.02148
316.00 0.02404
316.50 0.02660
317.00 0.02916
317.50 0.03222
318.00 0.03644
318.50 0.04064
319.00 0.04484
319.50 0.04903
320.00 0.05440
320.50 0.06197
321.00 0.06955
321.50 0.07710
322.00 0.08430
322.50 0.09150
323.00 0.10308
323.50 0.11657
324.00 0.13186
324.50 0.14754
325.00 0.16323
325.50 0.17892
326.00 0.19461
326.50 0.21030
327.00 0.23130
327.50 0.25574
328.00 0.28641
328.50 0.31563
329.00 0.34301
329.50 0.37031
330.00 0.39753
330.50 0.43388
331.00 0.46998
331.50 0.50273
332.00 0.53531
332.50 0.56772
333.00 0.60576
333.50 0.64367
334.00 0.67340
334.50 0.70048
335.00 0.72728
335.50 0.75380
336.00 0.78126
336.50 0.80852
337.00 0.83126
337.50 0.85452
338.00 0.87757
338.50 0.89984
339.00 0.91282
339.50 0.92634
340.00 0.93983
340.50 0.95314
341.00 0.96628
341.50 0.97823
342.00 0.98980
342.50 1.00129
343.00 1.01268
343.50 1.01824
344.00 1.02512
344.50 1.03251
345.00 1.03984
345.50 1.04731
346.00 1.05402
346.50 1.06060
347.00 1.06716
347.50 1.07370
348.00 1.07687
348.50 1.08034
349.00 1.08451
349.50 1.08869
350.00 1.09287
350.50 1.09705
351.00 1.10064
351.50 1.10391
352.00 1.10722
352.50 1.11057
353.00 1.11345
353.50 1.11536
354.00 1.11731
354.50 1.11977
355.00 1.12183
355.50 1.12321
356.00 1.12464
356.50 1.12592
357.00 1.12704
357.50 1.12799
358.00 1.12900
358.50 1.12934
359.00 1.12947
359.50 1.12976
360.00 1.13041
