phi[deg] B[T]
0.00 1.98072
0.50 1.98069
1.00 1.98082
1.50 1.98110
2.00 1.98154
2.50 1.98218
3.00 1.98242
3.50 1.98352
4.00 1.98476
4.50 1.98613
5.00 1.98765
5.50 1.98931
6.00 1.99125
6.50 1.99333
7.00 1.99555
7.50 1.99628
8.00 1.99699
8.50 1.99816
9.00 1.99989
9.50 2.00174
10.00 2.00372
10.50 2.00318
11.00 2.00188
11.50 2.00117
12.00 2.00086
12.50 2.00066
13.00 2.00056
13.50 2.00034
14.00 1.99881
14.50 1.99640
15.00 1.99149
15.50 1.98723
16.00 1.98463
16.50 1.98210
17.00 1.97965
17.50 1.97621
18.00 1.96959
18.50 1.96304
19.00 1.95680
19.50 1.95271
20.00 1.94867
20.50 1.94301
21.00 1.93482
21.50 1.92667
22.00 1.91740
22.50 1.90674
23.00 1.89609
23.50 1.88547
24.00 1.87205
24.50 1.85799
25.00 1.84397
25.50 1.82983
26.00 1.81298
26.50 1.79670
27.00 1.78062
27.50 1.76455
28.00 1.74748
28.50 1.72912
29.00 1.71064
29.50 1.69124
30.00 1.67186
30.50 1.65250
31.00 1.63112
31.50 1.60866
32.00 1.58846
32.50 1.56825
33.00 1.54804
33.50 1.52649
34.00 1.50318
34.50 1.47986
35.00 1.45566
35.50 1.43049
36.00 1.40532
36.50 1.38015
37.00 1.35469
37.50 1.32855
38.00 1.30287
38.50 1.27719
39.00 1.25152
39.50 1.22567
40.00 1.19966
40.50 1.17464
41.00 1.14963
41.50 1.12460
42.00 1.09925
42.50 1.07489
43.00 1.05120
43.50 1.02760
44.00 1.00429
44.50 0.98098
45.00 0.95744
45.50 0.93487
46.00 0.91281
46.50 0.89073
47.00 0.86945
47.50 0.84882
48.00 0.82711
48.50 0.80457
49.00 0.78422
49.50 0.76417
50.00 0.74377
50.50 0.72218
51.00 0.70277
51.50 0.68331
52.00 0.66380
52.50 0.64411
53.00 0.62146
53.50 0.60056
54.00 0.58040
54.50 0.56017
55.00 0.53988
55.50 0.51930
56.00 0.49680
56.50 0.47640
57.00 0.45592
57.50 0.43535
58.00 0.41477
58.50 0.39498
59.00 0.37512
59.50 0.35322
60.00 0.33125
60.50 0.30922
61.00 0.28712
61.50 0.26545
62.00 0.24934
62.50 0.23340
63.00 0.21740
63.50 0.20136
64.00 0.18526
64.50 0.16838
65.00 0.15729
65.50 0.14642
66.00 0.13553
66.50 0.12459
67.00 0.11353
67.50 0.10246
68.00 0.09365
68.50 0.08755
69.00 0.08144
69.50 0.07533
70.00 0.06911
70.50 0.06287
71.00 0.05664
71.50 0.05078
72.00 0.04715
72.50 0.04376
73.00 0.04038
73.50 0.03700
74.00 0.03362
74.50 0.03025
75.00 0.02783
75.50 0.02596
76.00 0.02410
76.50 0.02223
77.00 0.02037
77.50 0.01844
78.00 0.01650
78.50 0.01525
79.00 0.01425
79.50 0.01326
80.00 0.01226
80.50 0.01126
81.00 0.01027
81.50 0.00929
82.00 0.00860
82.50 0.00803
83.00 0.00749
83.50 0.00695
84.00 0.00641
84.50 0.00593
85.00 0.00564
85.50 0.00535
86.00 0.00507
86.50 0.00477
87.00 0.00447
87.50 0.00437
88.00 0.00426
88.50 0.00414
89.00 0.00402
89.50 0.00390
90.00 0.00378
90.00 0.00378
90.50 0.00390
91.00 0.00402
91.50 0.00414
92.00 0.00426
92.50 0.00437
93.00 0.00447
93.50 0.00477
94.00 0.00507
94.50 0.00535
95.00 0.00564
95.50 0.00593
96.00 0.00641
96.50 0.00695
97.00 0.00749
97.50 0.00803
98.00 0.00860
98.50 0.00929
99.00 0.01027
99.50 0.01126
100.00 0.01226
100.50 0.01326
101.00 0.01425
101.50 0.01525
102.00 0.01650
102.50 0.01844
103.00 0.02037
103.50 0.02223
104.00 0.02410
104.50 0.02596
105.00 0.02783
105.50 0.03025
106.00 0.03362
106.50 0.03700
107.00 0.04038
107.50 0.04376
108.00 0.04715
108.50 0.05078
109.00 0.05664
109.50 0.06287
110.00 0.06911
110.50 0.07533
111.00 0.08144
111.50 0.08755
112.00 0.09365
112.50 0.10246
113.00 0.11353
113.50 0.12459
114.00 0.13553
114.50 0.14642
115.00 0.15729
115.50 0.16838
116.00 0.18526
116.50 0.20136
117.00 0.21740
117.50 0.23340
118.00 0.24934
118.50 0.26545
119.00 0.28712
119.50 0.30922
120.00 0.33125
120.50 0.35322
121.00 0.37512
121.50 0.39498
122.00 0.41477
122.50 0.43535
123.00 0.45592
123.50 0.47640
124.00 0.49680
124.50 0.51930
125.00 0.53988
125.50 0.56017
126.00 0.58040
126.50 0.60056
127.00 0.62146
127.50 0.64411
128.00 0.66380
128.50 0.68331
129.00 0.70277
129.50 0.72218
130.00 0.74377
130.50 0.76417
131.00 0.78422
131.50 0.80457
132.00 0.82711
132.50 0.84882
133.00 0.86945
133.50 0.89073
134.00 0.91281
134.50 0.93487
135.00 0.95744
135.50 0.98098
136.00 1.00429
136.50 1.02760
137.00 1.05120
137.50 1.07489
138.00 1.09925
138.50 1.12460
139.00 1.14963
139.50 1.17464
140.00 1.19966
140.50 1.22567
141.00 1.25152
141.50 1.27719
142.00 1.30287
142.50 1.32855
143.00 1.35469
143.50 1.38015
144.00 1.40532
144.50 1.43049
145.00 1.45566
145.50 1.47986
146.00 1.50318
146.50 1.52649
147.00 1.54804
147.50 1.56825
148.00 1.58846
148.50 1.60866
149.00 1.63112
149.50 1.65250
150.00 1.67186
150.50 1.69124
151.00 1.71064
151.50 1.72912
152.00 1.74748
152.50 1.76455
153.00 1.78062
153.50 1.79670
154.00 1.81298
154.50 1.82983
155.00 1.84397
155.50 1.85799
156.00 1.87205
156.50 1.88547
157.00 1.89609
157.50 1.90674
158.00 1.91740
158.50 1.92667
159.00 1.93482
159.50 1.94301
160.00 1.94867
160.50 1.95271
161.00 1.95680
161.50 1.96304
162.00 1.96959
162.50 1.97621
163.00 1.97965
163.50 1.98210
164.00 1.98463
164.50 1.98723
165.00 1.99149
165.50 1.99640
166.00 1.99881
166.50 2.00034
167.00 2.00056
167.50 2.00066
168.00 2.00086
168.50 2.00117
169.00 2.00188
169.50 2.00318
170.00 2.00372
170.50 2.00174
171.00 1.99989
171.50 1.99816
172.00 1.99699
172.50 1.99628
173.00 1.99555
173.50 1.99333
174.00 1.99125
174.50 1.98931
175.00 1.98765
175.50 1.98613
176.00 1.98476
176.50 1.98352
177.00 1.98242
177.50 1.98218
178.00 1.98154
178.50 1.98110
179.00 1.98082
179.50 1.98069
180.00 1.98072
180.00 1.98072
180.50 1.98069
181.00 1.98082
181.50 1.98110
182.00 1.98154
182.50 1.98218
183.00 1.98242
183.50 1.98352
184.00 1.98476
184.50 1.98613
185.00 1.98765
185.50 1.98931
186.00 1.99125
186.50 1.99333
187.00 1.99555
187.50 1.99628
188.00 1.99699
188.50 1.99816
189.00 1.99989
189.50 2.00174
190.00 2.00372
190.50 2.00318
191.00 2.00188
191.50 2.00117
192.00 2.00086
192.50 2.00066
193.00 2.00056
193.50 2.00034
194.00 1.99881
194.50 1.99640
195.00 1.99149
195.50 1.98723
196.00 1.98463
196.50 1.98210
197.00 1.97965
197.50 1.97621
198.00 1.96959
198.50 1.96304
199.00 1.95680
199.50 1.95271
200.00 1.94867
200.50 1.94301
201.00 1.93482
201.50 1.92667
202.00 1.91740
202.50 1.90674
203.00 1.89609
203.50 1.88547
204.00 1.87205
204.50 1.85799
205.00 1.84397
205.50 1.82983
206.00 1.81298
206.50 1.79670
207.00 1.78062
207.50 1.76455
208.00 1.74748
208.50 1.72912
209.00 1.71064
209.50 1.69124
210.00 1.67186
210.50 1.65250
211.00 1.63112
211.50 1.60866
212.00 1.58846
212.50 1.56825
213.00 1.54804
213.50 1.52649
214.00 1.50318
214.50 1.47986
215.00 1.45566
215.50 1.43049
216.00 1.40532
216.50 1.38015
217.00 1.35469
217.50 1.32855
218.00 1.30287
218.50 1.27719
219.00 1.25152
219.50 1.22567
220.00 1.19966
220.50 1.17464
221.00 1.14963
221.50 1.12460
222.00 1.09925
222.50 1.07489
223.00 1.05120
223.50 1.02760
224.00 1.00429
224.50 0.98098
225.00 0.95744
225.50 0.93487
226.00 0.91281
226.50 0.89073
227.00 0.86945
227.50 0.84882
228.00 0.82711
228.50 0.80457
229.00 0.78422
229.50 0.76417
230.00 0.74377
230.50 0.72218
231.00 0.70277
231.50 0.68331
232.00 0.66380
232.50 0.64411
233.00 0.62146
233.50 0.60056
234.00 0.58040
234.50 0.56017
235.00 0.53988
235.50 0.51930
236.00 0.49680
236.50 0.47640
237.00 0.45592
237.50 0.43535
238.00 0.41477
238.50 0.39498
239.00 0.37512
239.50 0.35322
240.00 0.33125
240.50 0.30922
241.00 0.28712
241.50 0.26545
242.00 0.24934
242.50 0.23340
243.00 0.21740
243.50 0.20136
244.00 0.18526
244.50 0.16838
245.00 0.15729
245.50 0.14642
246.00 0.13553
246.50 0.12459
247.00 0.11353
247.50 0.10246
248.00 0.09365
248.50 0.08755
249.00 0.08144
249.50 0.07533
250.00 0.06911
250.50 0.06287
251.00 0.05664
251.50 0.05078
252.00 0.04715
252.50 0.04376
253.00 0.04038
253.50 0.03700
254.00 0.03362
254.50 0.03025
255.00 0.02783
255.50 0.02596
256.00 0.02410
256.50 0.02223
257.00 0.02037
257.50 0.01844
258.00 0.01650
258.50 0.01525
259.00 0.01425
259.50 0.01326
260.00 0.01226
260.50 0.01126
261.00 0.01027
261.50 0.00929
262.00 0.00860
262.50 0.00803
263.00 0.00749
263.50 0.00695
264.00 0.00641
264.50 0.00593
265.00 0.00564
265.50 0.00535
266.00 0.00507
266.50 0.00477
267.00 0.00447
267.50 0.00437
268.00 0.00426
268.50 0.00414
269.00 0.00402
269.50 0.00390
270.00 0.00378
270.00 0.00378
270.50 0.00390
271.00 0.00402
271.50 0.00414
272.00 0.00426
272.50 0.00437
273.00 0.00447
273.50 0.00477
274.00 0.00507
274.50 0.00535
275.00 0.00564
275.50 0.00593
276.00 0.00641
276.50 0.00695
277.00 0.00749
277.50 0.00803
278.00 0.00860
278.50 0.00929
279.00 0.01027
279.50 0.01126
280.00 0.01226
280.50 0.01326
281.00 0.01425
281.50 0.01525
282.00 0.01650
282.50 0.01844
283.00 0.02037
283.50 0.02223
284.00 0.02410
284.50 0.02596
285.00 0.02783
285.50 0.03025
286.00 0.03362
286.50 0.03700
287.00 0.04038
287.50 0.04376
288.00 0.04715
288.50 0.05078
289.00 0.05664
289.50 0.06287
290.00 0.06911
290.50 0.07533
291.00 0.08144
291.50 0.08755
292.00 0.09365
292.50 0.10246
293.00 0.11353
293.50 0.12459
294.00 0.13553
294.50 0.14642
295.00 0.15729
295.50 0.16838
296.00 0.18526
296.50 0.20136
297.00 0.21740
297.50 0.23340
298.00 0.24934
298.50 0.26545
299.00 0.28712
299.50 0.30922
300.00 0.33125
300.50 0.35322
301.00 0.37512
301.50 0.39498
302.00 0.41477
302.50 0.43535
303.00 0.45592
303.50 0.47640
304.00 0.49680
304.50 0.51930
305.00 0.53988
305.50 0.56017
306.00 0.58040
306.50 0.60056
307.00 0.62146
307.50 0.64411
308.00 0.66380
308.50 0.68331
309.00 0.70277
309.50 0.72218
310.00 0.74377
310.50 0.76417
311.00 0.78422
311.50 0.80457
312.00 0.82711
312.50 0.84882
313.00 0.86945
313.50 0.89073
314.00 0.91281
314.50 0.93487
315.00 0.95744
315.50 0.98098
316.00 1.00429
316.50 1.02760
317.00 1.05120
317.50 1.07489
318.00 1.09925
318.50 1.12460
319.00 1.14963
319.50 1.17464
320.00 1.19966
320.50 1.22567
321.00 1.25152
321.50 1.27719
322.00 1.30287
322.50 1.32855
323.00 1.35469
323.50 1.38015
324.00 1.40532
324.50 1.43049
325.00 1.45566
325.50 1.47986
326.00 1.50318
326.50 1.52649
327.00 1.54804
327.50 1.56825
328.00 1.58846
328.50 1.60866
329.00 1.63112
329.50 1.65250
330.00 1.67186
330.50 1.69124
331.00 1.71064
331.50 1.72912
332.00 1.74748
332.50 1.76455
333.00 1.78062
333.50 1.79670
334.00 1.81298
334.50 1.82983
335.00 1.84397
335.50 1.85799
336.00 1.87205
336.50 1.88547
337.00 1.89609
337.50 1.90674
338.00 1.91740
338.50 1.92667
339.00 1.93482
339.50 1.94301
340.00 1.94867
340.50 1.95271
341.00 1.95680
341.50 1.96304
342.00 1.96959
342.50 1.97621
343.00 1.97965
343.50 1.98210
344.00 1.98463
344.50 1.98723
345.00 1.99149
345.50 1.99640
346.00 1.99881
346.50 2.00034
347.00 2.00056
347.50 2.00066
348.00 2.00086
348.50 2.00117
349.00 2.00188
349.50 2.00318
350.00 2.00372
350.50 2.00174
351.00 1.99989
351.50 1.99816
352.00 1.99699
352.50 1.99628
353.00 1.99555
353.50 1.99333
354.00 1.99125
354.50 1.98931
355.00 1.98765
355.50 1.98613
356.00 1.98476
356.50 1.98352
357.00 1.98242
357.50 1.98218
358.00 1.98154
358.50 1.98110
359.00 1.98082
359.50 1.98069
360.00 1.98072
