phi[deg] B[T]
0.00 1.73716
0.50 1.73669
1.00 1.73636
1.50 1.73617
2.00 1.73611
2.50 1.73610
3.00 1.73623
3.50 1.73649
4.00 1.73690
4.50 1.73732
5.00 1.73787
5.50 1.73872
6.00 1.74012
6.50 1.74164
7.00 1.74279
7.50 1.74364
8.00 1.74463
8.50 1.74575
9.00 1.74738
9.50 1.75037
10.00 1.75240
10.50 1.75364
11.00 1.75359
11.50 1.75363
12.00 1.75377
12.50 1.75401
13.00 1.75294
13.50 1.75136
14.00 1.74948
14.50 1.74672
15.00 1.74405
15.50 1.74149
16.00 1.73903
16.50 1.73677
17.00 1.73470
17.50 1.73287
18.00 1.72927
18.50 1.72516
19.00 1.72113
19.50 1.71717
20.00 1.71370
20.50 1.71135
21.00 1.70906
21.50 1.70111
22.00 1.69189
22.50 1.68270
23.00 1.67356
23.50 1.66520
24.00 1.65897
24.50 1.64529
25.00 1.62932
25.50 1.61471
26.00 1.60013
26.50 1.58560
27.00 1.57110
27.50 1.55515
28.00 1.53803
28.50 1.52085
29.00 1.50316
29.50 1.48553
30.00 1.46795
30.50 1.45043
31.00 1.43327
31.50 1.41756
32.00 1.40202
32.50 1.38315
33.00 1.36365
33.50 1.34416
34.00 1.32469
34.50 1.30524
35.00 1.28595
35.50 1.26735
36.00 1.24541
36.50 1.22168
37.00 1.19875
37.50 1.17630
38.00 1.15388
38.50 1.13041
39.00 1.10699
39.50 1.08362
40.00 1.06057
40.50 1.03800
41.00 1.01555
41.50 0.99359
42.00 0.97191
42.50 0.95033
43.00 0.92989
43.50 0.90950
44.00 0.88948
44.50 0.86994
45.00 0.85069
45.50 0.83265
46.00 0.81430
46.50 0.79683
47.00 0.78012
47.50 0.76349
48.00 0.74781
48.50 0.73223
49.00 0.71818
49.50 0.70413
50.00 0.68651
50.50 0.67242
51.00 0.65960
51.50 0.64514
52.00 0.62858
52.50 0.61198
53.00 0.59532
53.50 0.57652
54.00 0.55903
54.50 0.54191
55.00 0.52462
55.50 0.50718
56.00 0.48804
56.50 0.46843
57.00 0.44478
57.50 0.42095
58.00 0.39695
58.50 0.37268
59.00 0.34361
59.50 0.31439
60.00 0.29057
60.50 0.26762
61.00 0.24455
61.50 0.22137
62.00 0.19554
62.50 0.16796
63.00 0.14961
63.50 0.13299
64.00 0.11943
64.50 0.10588
65.00 0.09232
65.50 0.07982
66.00 0.07120
66.50 0.06258
67.00 0.05393
67.50 0.04736
68.00 0.04096
68.50 0.03594
69.00 0.03243
69.50 0.02891
70.00 0.02538
70.50 0.02186
71.00 0.01850
71.50 0.01644
72.00 0.01480
72.50 0.01319
73.00 0.01158
73.50 0.00996
74.00 0.00838
74.50 0.00753
75.00 0.00668
75.50 0.00583
76.00 0.00509
76.50 0.00437
77.00 0.00388
77.50 0.00349
78.00 0.00312
78.50 0.00275
79.00 0.00238
79.50 0.00202
80.00 0.00182
80.50 0.00162
81.00 0.00142
81.50 0.00127
82.00 0.00113
82.50 0.00099
83.00 0.00088
83.50 0.00078
84.00 0.00069
84.50 0.00063
85.00 0.00057
85.50 0.00051
86.00 0.00045
86.50 0.00041
87.00 0.00038
87.50 0.00035
88.00 0.00032
88.50 0.00030
89.00 0.00029
89.50 0.00028
90.00 0.00027
90.00 0.00027
90.50 0.00028
91.00 0.00029
91.50 0.00030
92.00 0.00032
92.50 0.00035
93.00 0.00038
93.50 0.00041
94.00 0.00045
94.50 0.00051
95.00 0.00057
95.50 0.00063
96.00 0.00069
96.50 0.00078
97.00 0.00088
97.50 0.00099
98.00 0.00113
98.50 0.00127
99.00 0.00142
99.50 0.00162
100.00 0.00182
100.50 0.00202
101.00 0.00238
101.50 0.00275
102.00 0.00312
102.50 0.00349
103.00 0.00388
103.50 0.00437
104.00 0.00509
104.50 0.00583
105.00 0.00668
105.50 0.00753
106.00 0.00838
106.50 0.00996
107.00 0.01158
107.50 0.01319
108.00 0.01480
108.50 0.01644
109.00 0.01850
109.50 0.02186
110.00 0.02538
110.50 0.02891
111.00 0.03243
111.50 0.03594
112.00 0.04096
112.50 0.04736
113.00 0.05393
113.50 0.06258
114.00 0.07120
114.50 0.07982
115.00 0.09232
115.50 0.10588
116.00 0.11943
116.50 0.13299
117.00 0.14961
117.50 0.16796
118.00 0.19554
118.50 0.22137
119.00 0.24455
119.50 0.26762
120.00 0.29057
120.50 0.31439
121.00 0.34361
121.50 0.37268
122.00 0.39695
122.50 0.42095
123.00 0.44478
123.50 0.46843
124.00 0.48804
124.50 0.50718
125.00 0.52462
125.50 0.54191
126.00 0.55903
126.50 0.57652
127.00 0.59532
127.50 0.61198
128.00 0.62858
128.50 0.64514
129.00 0.65960
129.50 0.67242
130.00 0.68651
130.50 0.70413
131.00 0.71818
131.50 0.73223
132.00 0.74781
132.50 0.76349
133.00 0.78012
133.50 0.79683
134.00 0.81430
134.50 0.83265
135.00 0.85069
135.50 0.86994
136.00 0.88948
136.50 0.90950
137.00 0.92989
137.50 0.95033
138.00 0.97191
138.50 0.99359
139.00 1.01555
139.50 1.03800
140.00 1.06057
140.50 1.08362
141.00 1.10699
141.50 1.13041
142.00 1.15388
142.50 1.17630
143.00 1.19875
143.50 1.22168
144.00 1.24541
144.50 1.26735
145.00 1.28595
145.50 1.30524
146.00 1.32469
146.50 1.34416
147.00 1.36365
147.50 1.38315
148.00 1.40202
148.50 1.41756
149.00 1.43327
149.50 1.45043
150.00 1.46795
150.50 1.48553
151.00 1.50316
151.50 1.52085
152.00 1.53803
152.50 1.55515
153.00 1.57110
153.50 1.58560
154.00 1.60013
154.50 1.61471
155.00 1.62932
155.50 1.64529
156.00 1.65897
156.50 1.66520
157.00 1.67356
157.50 1.68270
158.00 1.69189
158.50 1.70111
159.00 1.70906
159.50 1.71135
160.00 1.71370
160.50 1.71717
161.00 1.72113
161.50 1.72516
162.00 1.72927
162.50 1.73287
163.00 1.73470
163.50 1.73677
164.00 1.73903
164.50 1.74149
165.00 1.74405
165.50 1.74672
166.00 1.74948
166.50 1.75136
167.00 1.75294
167.50 1.75401
168.00 1.75377
168.50 1.75363
169.00 1.75359
169.50 1.75364
170.00 1.75240
170.50 1.75037
171.00 1.74738
171.50 1.74575
172.00 1.74463
172.50 1.74364
173.00 1.74279
173.50 1.74164
174.00 1.74012
174.50 1.73872
175.00 1.73787
175.50 1.73732
176.00 1.73690
176.50 1.73649
177.00 1.73623
177.50 1.73610
178.00 1.73611
178.50 1.73617
179.00 1.73636
179.50 1.73669
180.00 1.73716
180.00 1.73716
180.50 1.73669
181.00 1.73636
181.50 1.73617
182.00 1.73611
182.50 1.73610
183.00 1.73623
183.50 1.73649
184.00 1.73690
184.50 1.73732
185.00 1.73787
185.50 1.73872
186.00 1.74012
186.50 1.74164
187.00 1.74279
187.50 1.74364
188.00 1.74463
188.50 1.74575
189.00 1.74738
189.50 1.75037
190.00 1.75240
190.50 1.75364
191.00 1.75359
191.50 1.75363
192.00 1.75377
192.50 1.75401
193.00 1.75294
193.50 1.75136
194.00 1.74948
194.50 1.74672
195.00 1.74405
195.50 1.74149
196.00 1.73903
196.50 1.73677
197.00 1.73470
197.50 1.73287
198.00 1.72927
198.50 1.72516
199.00 1.72113
199.50 1.71717
200.00 1.71370
200.50 1.71135
201.00 1.70906
201.50 1.70111
202.00 1.69189
202.50 1.68270
203.00 1.67356
203.50 1.66520
204.00 1.65897
204.50 1.64529
205.00 1.62932
205.50 1.61471
206.00 1.60013
206.50 1.58560
207.00 1.57110
207.50 1.55515
208.00 1.53803
208.50 1.52085
209.00 1.50316
209.50 1.48553
210.00 1.46795
210.50 1.45043
211.00 1.43327
211.50 1.41756
212.00 1.40202
212.50 1.38315
213.00 1.36365
213.50 1.34416
214.00 1.32469
214.50 1.30524
215.00 1.28595
215.50 1.26735
216.00 1.24541
216.50 1.22168
217.00 1.19875
217.50 1.17630
218.00 1.15388
218.50 1.13041
219.00 1.10699
219.50 1.08362
220.00 1.06057
220.50 1.03800
221.00 1.01555
221.50 0.99359
222.00 0.97191
222.50 0.95033
223.00 0.92989
223.50 0.90950
224.00 0.88948
224.50 0.86994
225.00 0.85069
225.50 0.83265
226.00 0.81430
226.50 0.79683
227.00 0.78012
227.50 0.76349
228.00 0.74781
228.50 0.73223
229.00 0.71818
229.50 0.70413
230.00 0.68651
230.50 0.67242
231.00 0.65960
231.50 0.64514
232.00 0.62858
232.50 0.61198
233.00 0.59532
233.50 0.57652
234.00 0.55903
234.50 0.54191
235.00 0.52462
235.50 0.50718
236.00 0.48804
236.50 0.46843
237.00 0.44478
237.50 0.42095
238.00 0.39695
238.50 0.37268
239.00 0.34361
239.50 0.31439
240.00 0.29057
240.50 0.26762
241.00 0.24455
241.50 0.22137
242.00 0.19554
242.50 0.16796
243.00 0.14961
243.50 0.13299
244.00 0.11943
244.50 0.10588
245.00 0.09232
245.50 0.07982
246.00 0.07120
246.50 0.06258
247.00 0.05393
247.50 0.04736
248.00 0.04096
248.50 0.03594
249.00 0.03243
249.50 0.02891
250.00 0.02538
250.50 0.02186
251.00 0.01850
251.50 0.01644
252.00 0.01480
252.50 0.01319
253.00 0.01158
253.50 0.00996
254.00 0.00838
254.50 0.00753
255.00 0.00668
255.50 0.00583
256.00 0.00509
256.50 0.00437
257.00 0.00388
257.50 0.00349
258.00 0.00312
258.50 0.00275
259.00 0.00238
259.50 0.00202
260.00 0.00182
260.50 0.00162
261.00 0.00142
261.50 0.00127
262.00 0.00113
262.50 0.00099
263.00 0.00088
263.50 0.00078
264.00 0.00069
264.50 0.00063
265.00 0.00057
265.50 0.00051
266.00 0.00045
266.50 0.00041
267.00 0.00038
267.50 0.00035
268.00 0.00032
268.50 0.00030
269.00 0.00029
269.50 0.00028
270.00 0.00027
270.00 0.00027
270.50 0.00028
271.00 0.00029
271.50 0.00030
272.00 0.00032
272.50 0.00035
273.00 0.00038
273.50 0.00041
274.00 0.00045
274.50 0.00051
275.00 0.00057
275.50 0.00063
276.00 0.00069
276.50 0.00078
277.00 0.00088
277.50 0.00099
278.00 0.00113
278.50 0.00127
279.00 0.00142
279.50 0.00162
280.00 0.00182
280.50 0.00202
281.00 0.00238
281.50 0.00275
282.00 0.00312
282.50 0.00349
283.00 0.00388
283.50 0.00437
284.00 0.00509
284.50 0.00583
285.00 0.00668
285.50 0.00753
286.00 0.00838
286.50 0.00996
287.00 0.01158
287.50 0.01319
288.00 0.01480
288.50 0.01644
289.00 0.01850
289.50 0.02186
290.00 0.02538
290.50 0.02891
291.00 0.03243
291.50 0.03594
292.00 0.04096
292.50 0.04736
293.00 0.05393
293.50 0.06258
294.00 0.07120
294.50 0.07982
295.00 0.09232
295.50 0.10588
296.00 0.11943
296.50 0.13299
297.00 0.14961
297.50 0.16796
298.00 0.19554
298.50 0.22137
299.00 0.24455
299.50 0.26762
300.00 0.29057
300.50 0.31439
301.00 0.34361
301.50 0.37268
302.00 0.39695
302.50 0.42095
303.00 0.44478
303.50 0.46843
304.00 0.48804
304.50 0.50718
305.00 0.52462
305.50 0.54191
306.00 0.55903
306.50 0.57652
307.00 0.59532
307.50 0.61198
308.00 0.62858
308.50 0.64514
309.00 0.65960
309.50 0.67242
310.00 0.68651
310.50 0.70413
311.00 0.71818
311.50 0.73223
312.00 0.74781
312.50 0.76349
313.00 0.78012
313.50 0.79683
314.00 0.81430
314.50 0.83265
315.00 0.85069
315.50 0.86994
316.00 0.88948
316.50 0.90950
317.00 0.92989
317.50 0.95033
318.00 0.97191
318.50 0.99359
319.00 1.01555
319.50 1.03800
320.00 1.06057
320.50 1.08362
321.00 1.10699
321.50 1.13041
322.00 1.15388
322.50 1.17630
323.00 1.19875
323.50 1.22168
324.00 1.24541
324.50 1.26735
325.00 1.28595
325.50 1.30524
326.00 1.32469
326.50 1.34416
327.00 1.36365
327.50 1.38315
328.00 1.40202
328.50 1.41756
329.00 1.43327
329.50 1.45043
330.00 1.46795
330.50 1.48553
331.00 1.50316
331.50 1.52085
332.00 1.53803
332.50 1.55515
333.00 1.57110
333.50 1.58560
334.00 1.60013
334.50 1.61471
335.00 1.62932
335.50 1.64529
336.00 1.65897
336.50 1.66520
337.00 1.67356
337.50 1.68270
338.00 1.69189
338.50 1.70111
339.00 1.70906
339.50 1.71135
340.00 1.71370
340.50 1.71717
341.00 1.72113
341.50 1.72516
342.00 1.72927
342.50 1.73287
343.00 1.73470
343.50 1.73677
344.00 1.73903
344.50 1.74149
345.00 1.74405
345.50 1.74672
346.00 1.74948
346.50 1.75136
347.00 1.75294
347.50 1.75401
348.00 1.75377
348.50 1.75363
349.00 1.75359
349.50 1.75364
350.00 1.75240
350.50 1.75037
351.00 1.74738
351.50 1.74575
352.00 1.74463
352.50 1.74364
353.00 1.74279
353.50 1.74164
354.00 1.74012
354.50 1.73872
355.00 1.73787
355.50 1.73732
356.00 1.73690
356.50 1.73649
357.00 1.73623
357.50 1.73610
358.00 1.73611
358.50 1.73617
359.00 1.73636
359.50 1.73669
360.00 1.73716
