phi[deg] B[T]
0.00 1.39367
0.50 1.39356
1.00 1.39356
1.50 1.39368
2.00 1.39392
2.50 1.39436
3.00 1.39491
3.50 1.39557
4.00 1.39632
4.50 1.39699
5.00 1.39776
5.50 1.39893
6.00 1.40041
6.50 1.40200
7.00 1.40301
7.50 1.40393
8.00 1.40496
8.50 1.40608
9.00 1.40817
9.50 1.41041
10.00 1.41183
10.50 1.41260
11.00 1.41290
11.50 1.41328
12.00 1.41373
12.50 1.41297
13.00 1.41173
13.50 1.41048
14.00 1.40856
14.50 1.40672
15.00 1.40496
15.50 1.40257
16.00 1.40014
16.50 1.39762
17.00 1.39423
17.50 1.39092
18.00 1.38769
18.50 1.38481
19.00 1.38275
19.50 1.38059
20.00 1.37831
20.50 1.37355
21.00 1.36883
21.50 1.36416
22.00 1.35952
22.50 1.35481
23.00 1.35014
23.50 1.34291
24.00 1.33338
24.50 1.32387
25.00 1.31438
25.50 1.30226
26.00 1.29012
26.50 1.27730
27.00 1.26282
27.50 1.24836
28.00 1.23394
28.50 1.21930
29.00 1.20443
29.50 1.18814
30.00 1.17182
30.50 1.15568
31.00 1.13959
31.50 1.12355
32.00 1.10743
32.50 1.09058
33.00 1.07377
33.50 1.05720
34.00 1.04076
34.50 1.02438
35.00 1.00806
35.50 0.99188
36.00 0.97590
36.50 0.96166
37.00 0.94819
37.50 0.93314
38.00 0.91814
38.50 0.90318
39.00 0.89057
39.50 0.87831
40.00 0.86474
40.50 0.85120
41.00 0.83676
41.50 0.82254
42.00 0.80860
42.50 0.79445
43.00 0.77908
43.50 0.76454
44.00 0.74909
44.50 0.73260
45.00 0.71621
45.50 0.69929
46.00 0.68236
46.50 0.66489
47.00 0.64680
47.50 0.62867
48.00 0.61048
48.50 0.59247
49.00 0.57468
49.50 0.55706
50.00 0.53939
50.50 0.52353
51.00 0.50839
51.50 0.49203
52.00 0.47415
52.50 0.45623
53.00 0.43827
53.50 0.42376
54.00 0.41044
54.50 0.39625
55.00 0.38104
55.50 0.36567
56.00 0.34740
56.50 0.32903
57.00 0.31057
57.50 0.29119
58.00 0.27150
58.50 0.25173
59.00 0.23268
59.50 0.21423
60.00 0.19568
60.50 0.17704
61.00 0.15832
61.50 0.13954
62.00 0.12364
62.50 0.11139
63.00 0.09883
63.50 0.08626
64.00 0.07367
64.50 0.06435
65.00 0.05724
65.50 0.05013
66.00 0.04313
66.50 0.03669
67.00 0.03274
67.50 0.02894
68.00 0.02513
68.50 0.02133
69.00 0.01839
69.50 0.01629
70.00 0.01419
70.50 0.01225
71.00 0.01040
71.50 0.00914
72.00 0.00816
72.50 0.00719
73.00 0.00624
73.50 0.00529
74.00 0.00452
74.50 0.00404
75.00 0.00355
75.50 0.00307
76.00 0.00270
76.50 0.00232
77.00 0.00202
77.50 0.00181
78.00 0.00160
78.50 0.00138
79.00 0.00121
79.50 0.00104
80.00 0.00094
80.50 0.00085
81.00 0.00075
81.50 0.00066
82.00 0.00057
82.50 0.00052
83.00 0.00047
83.50 0.00042
84.00 0.00038
84.50 0.00033
85.00 0.00030
85.50 0.00027
86.00 0.00025
86.50 0.00022
87.00 0.00020
87.50 0.00019
88.00 0.00018
88.50 0.00017
89.00 0.00016
89.50 0.00015
90.00 0.00015
90.00 0.00015
90.50 0.00015
91.00 0.00016
91.50 0.00017
92.00 0.00018
92.50 0.00019
93.00 0.00020
93.50 0.00022
94.00 0.00025
94.50 0.00027
95.00 0.00030
95.50 0.00033
96.00 0.00038
96.50 0.00042
97.00 0.00047
97.50 0.00052
98.00 0.00057
98.50 0.00066
99.00 0.00075
99.50 0.00085
100.00 0.00094
100.50 0.00104
101.00 0.00121
101.50 0.00138
102.00 0.00160
102.50 0.00181
103.00 0.00202
103.50 0.00232
104.00 0.00270
104.50 0.00307
105.00 0.00355
105.50 0.00404
106.00 0.00452
106.50 0.00529
107.00 0.00624
107.50 0.00719
108.00 0.00816
108.50 0.00914
109.00 0.01040
109.50 0.01225
110.00 0.01419
110.50 0.01629
111.00 0.01839
111.50 0.02133
112.00 0.02513
112.50 0.02894
113.00 0.03274
113.50 0.03669
114.00 0.04313
114.50 0.05013
115.00 0.05724
115.50 0.06435
116.00 0.07367
116.50 0.08626
117.00 0.09883
117.50 0.11139
118.00 0.12364
118.50 0.13954
119.00 0.15832
119.50 0.17704
120.00 0.19568
120.50 0.21423
121.00 0.23268
121.50 0.25173
122.00 0.27150
122.50 0.29119
123.00 0.31057
123.50 0.32903
124.00 0.34740
124.50 0.36567
125.00 0.38104
125.50 0.39625
126.00 0.41044
126.50 0.42376
127.00 0.43827
127.50 0.45623
128.00 0.47415
128.50 0.49203
129.00 0.50839
129.50 0.52353
130.00 0.53939
130.50 0.55706
131.00 0.57468
131.50 0.59247
132.00 0.61048
132.50 0.62867
133.00 0.64680
133.50 0.66489
134.00 0.68236
134.50 0.69929
135.00 0.71621
135.50 0.73260
136.00 0.74909
136.50 0.76454
137.00 0.77908
137.50 0.79445
138.00 0.80860
138.50 0.82254
139.00 0.83676
139.50 0.85120
140.00 0.86474
140.50 0.87831
141.00 0.89057
141.50 0.90318
142.00 0.91814
142.50 0.93314
143.00 0.94819
143.50 0.96166
144.00 0.97590
144.50 0.99188
145.00 1.00806
145.50 1.02438
146.00 1.04076
146.50 1.05720
147.00 1.07377
147.50 1.09058
148.00 1.10743
148.50 1.12355
149.00 1.13959
149.50 1.15568
150.00 1.17182
150.50 1.18814
151.00 1.20443
151.50 1.21930
152.00 1.23394
152.50 1.24836
153.00 1.26282
153.50 1.27730
154.00 1.29012
154.50 1.30226
155.00 1.31438
155.50 1.32387
156.00 1.33338
156.50 1.34291
157.00 1.35014
157.50 1.35481
158.00 1.35952
158.50 1.36416
159.00 1.36883
159.50 1.37355
160.00 1.37831
160.50 1.38059
161.00 1.38275
161.50 1.38481
162.00 1.38769
162.50 1.39092
163.00 1.39423
163.50 1.39762
164.00 1.40014
164.50 1.40257
165.00 1.40496
165.50 1.40672
166.00 1.40856
166.50 1.41048
167.00 1.41173
167.50 1.41297
168.00 1.41373
168.50 1.41328
169.00 1.41290
169.50 1.41260
170.00 1.41183
170.50 1.41041
171.00 1.40817
171.50 1.40608
172.00 1.40496
172.50 1.40393
173.00 1.40301
173.50 1.40200
174.00 1.40041
174.50 1.39893
175.00 1.39776
175.50 1.39699
176.00 1.39632
176.50 1.39557
177.00 1.39491
177.50 1.39436
178.00 1.39392
178.50 1.39368
179.00 1.39356
179.50 1.39356
180.00 1.39367
180.00 1.39367
180.50 1.39356
181.00 1.39356
181.50 1.39368
182.00 1.39392
182.50 1.39436
183.00 1.39491
183.50 1.39557
184.00 1.39632
184.50 1.39699
185.00 1.39776
185.50 1.39893
186.00 1.40041
186.50 1.40200
187.00 1.40301
187.50 1.40393
188.00 1.40496
188.50 1.40608
189.00 1.40817
189.50 1.41041
190.00 1.41183
190.50 1.41260
191.00 1.41290
191.50 1.41328
192.00 1.41373
192.50 1.41297
193.00 1.41173
193.50 1.41048
194.00 1.40856
194.50 1.40672
195.00 1.40496
195.50 1.40257
196.00 1.40014
196.50 1.39762
197.00 1.39423
197.50 1.39092
198.00 1.38769
198.50 1.38481
199.00 1.38275
199.50 1.38059
200.00 1.37831
200.50 1.37355
201.00 1.36883
201.50 1.36416
202.00 1.35952
202.50 1.35481
203.00 1.35014
203.50 1.34291
204.00 1.33338
204.50 1.32387
205.00 1.31438
205.50 1.30226
206.00 1.29012
206.50 1.27730
207.00 1.26282
207.50 1.24836
208.00 1.23394
208.50 1.21930
209.00 1.20443
209.50 1.18814
210.00 1.17182
210.50 1.15568
211.00 1.13959
211.50 1.12355
212.00 1.10743
212.50 1.09058
213.00 1.07377
213.50 1.05720
214.00 1.04076
214.50 1.02438
215.00 1.00806
215.50 0.99188
216.00 0.97590
216.50 0.96166
217.00 0.94819
217.50 0.93314
218.00 0.91814
218.50 0.90318
219.00 0.89057
219.50 0.87831
220.00 0.86474
220.50 0.85120
221.00 0.83676
221.50 0.82254
222.00 0.80860
222.50 0.79445
223.00 0.77908
223.50 0.76454
224.00 0.74909
224.50 0.73260
225.00 0.71621
225.50 0.69929
226.00 0.68236
226.50 0.66489
227.00 0.64680
227.50 0.62867
228.00 0.61048
228.50 0.59247
229.00 0.57468
229.50 0.55706
230.00 0.53939
230.50 0.52353
231.00 0.50839
231.50 0.49203
232.00 0.47415
232.50 0.45623
233.00 0.43827
233.50 0.42376
234.00 0.41044
234.50 0.39625
235.00 0.38104
235.50 0.36567
236.00 0.34740
236.50 0.32903
237.00 0.31057
237.50 0.29119
238.00 0.27150
238.50 0.25173
239.00 0.23268
239.50 0.21423
240.00 0.19568
240.50 0.17704
241.00 0.15832
241.50 0.13954
242.00 0.12364
242.50 0.11139
243.00 0.09883
243.50 0.08626
244.00 0.07367
244.50 0.06435
245.00 0.05724
245.50 0.05013
246.00 0.04313
246.50 0.03669
247.00 0.03274
247.50 0.02894
248.00 0.02513
248.50 0.02133
249.00 0.01839
249.50 0.01629
250.00 0.01419
250.50 0.01225
251.00 0.01040
251.50 0.00914
252.00 0.00816
252.50 0.00719
253.00 0.00624
253.50 0.00529
254.00 0.00452
254.50 0.00404
255.00 0.00355
255.50 0.00307
256.00 0.00270
256.50 0.00232
257.00 0.00202
257.50 0.00181
258.00 0.00160
258.50 0.00138
259.00 0.00121
259.50 0.00104
260.00 0.00094
260.50 0.00085
261.00 0.00075
261.50 0.00066
262.00 0.00057
262.50 0.00052
263.00 0.00047
263.50 0.00042
264.00 0.00038
264.50 0.00033
265.00 0.00030
265.50 0.00027
266.00 0.00025
266.50 0.00022
267.00 0.00020
267.50 0.00019
268.00 0.00018
268.50 0.00017
269.00 0.00016
269.50 0.00015
270.00 0.00015
270.00 0.00015
270.50 0.00015
271.00 0.00016
271.50 0.00017
272.00 0.00018
272.50 0.00019
273.00 0.00020
273.50 0.00022
274.00 0.00025
274.50 0.00027
275.00 0.00030
275.50 0.00033
276.00 0.00038
276.50 0.00042
277.00 0.00047
277.50 0.00052
278.00 0.00057
278.50 0.00066
279.00 0.00075
279.50 0.00085
280.00 0.00094
280.50 0.00104
281.00 0.00121
281.50 0.00138
282.00 0.00160
282.50 0.00181
283.00 0.00202
283.50 0.00232
284.00 0.00270
284.50 0.00307
285.00 0.00355
285.50 0.00404
286.00 0.00452
286.50 0.00529
287.00 0.00624
287.50 0.00719
288.00 0.00816
288.50 0.00914
289.00 0.01040
289.50 0.01225
290.00 0.01419
290.50 0.01629
291.00 0.01839
291.50 0.02133
292.00 0.02513
292.50 0.02894
293.00 0.03274
293.50 0.03669
294.00 0.04313
294.50 0.05013
295.00 0.05724
295.50 0.06435
296.00 0.07367
296.50 0.08626
297.00 0.09883
297.50 0.11139
298.00 0.12364
298.50 0.13954
299.00 0.15832
299.50 0.17704
300.00 0.19568
300.50 0.21423
301.00 0.23268
301.50 0.25173
302.00 0.27150
302.50 0.29119
303.00 0.31057
303.50 0.32903
304.00 0.34740
304.50 0.36567
305.00 0.38104
305.50 0.39625
306.00 0.41044
306.50 0.42376
307.00 0.43827
307.50 0.45623
308.00 0.47415
308.50 0.49203
309.00 0.50839
309.50 0.52353
310.00 0.53939
310.50 0.55706
311.00 0.57468
311.50 0.59247
312.00 0.61048
312.50 0.62867
313.00 0.64680
313.50 0.66489
314.00 0.68236
314.50 0.69929
315.00 0.71621
315.50 0.73260
316.00 0.74909
316.50 0.76454
317.00 0.77908
317.50 0.79445
318.00 0.80860
318.50 0.82254
319.00 0.83676
319.50 0.85120
320.00 0.86474
320.50 0.87831
321.00 0.89057
321.50 0.90318
322.00 0.91814
322.50 0.93314
323.00 0.94819
323.50 0.96166
324.00 0.97590
324.50 0.99188
325.00 1.00806
325.50 1.02438
326.00 1.04076
326.50 1.05720
327.00 1.07377
327.50 1.09058
328.00 1.10743
328.50 1.12355
329.00 1.13959
329.50 1.15568
330.00 1.17182
330.50 1.18814
331.00 1.20443
331.50 1.21930
332.00 1.23394
332.50 1.24836
333.00 1.26282
333.50 1.27730
334.00 1.29012
334.50 1.30226
335.00 1.31438
335.50 1.32387
336.00 1.33338
336.50 1.34291
337.00 1.35014
337.50 1.35481
338.00 1.35952
338.50 1.36416
339.00 1.36883
339.50 1.37355
340.00 1.37831
340.50 1.38059
341.00 1.38275
341.50 1.38481
342.00 1.38769
342.50 1.39092
343.00 1.39423
343.50 1.39762
344.00 1.40014
344.50 1.40257
345.00 1.40496
345.50 1.40672
346.00 1.40856
346.50 1.41048
347.00 1.41173
347.50 1.41297
348.00 1.41373
348.50 1.41328
349.00 1.41290
349.50 1.41260
350.00 1.41183
350.50 1.41041
351.00 1.40817
351.50 1.40608
352.00 1.40496
352.50 1.40393
353.00 1.40301
353.50 1.40200
354.00 1.40041
354.50 1.39893
355.00 1.39776
355.50 1.39699
356.00 1.39632
356.50 1.39557
357.00 1.39491
357.50 1.39436
358.00 1.39392
358.50 1.39368
359.00 1.39356
359.50 1.39356
360.00 1.39367
