phi[deg] B[T]
0.00 1.09725
0.50 1.09667
1.00 1.09617
1.50 1.09575
2.00 1.09515
2.50 1.09471
3.00 1.09436
3.50 1.09383
4.00 1.09318
4.50 1.09320
5.00 1.09336
5.50 1.09380
6.00 1.09457
6.50 1.09542
7.00 1.09622
7.50 1.09709
8.00 1.09851
8.50 1.10063
9.00 1.10282
9.50 1.10434
10.00 1.10512
10.50 1.10599
11.00 1.10739
11.50 1.10887
12.00 1.11017
12.50 1.10939
13.00 1.10868
13.50 1.10796
14.00 1.10674
14.50 1.10546
15.00 1.10371
15.50 1.10208
16.00 1.10069
16.50 1.09936
17.00 1.09819
17.50 1.09722
18.00 1.09631
18.50 1.09548
19.00 1.09435
19.50 1.09210
20.00 1.08926
20.50 1.08847
21.00 1.08770
21.50 1.08697
22.00 1.08377
22.50 1.07764
23.00 1.07154
23.50 1.06651
24.00 1.06302
24.50 1.05257
25.00 1.04069
25.50 1.03004
26.00 1.01939
26.50 1.00876
27.00 0.99570
27.50 0.98139
28.00 0.96719
28.50 0.95402
29.00 0.94090
29.50 0.92725
30.00 0.91343
30.50 0.89965
31.00 0.88610
31.50 0.87297
32.00 0.85953
32.50 0.84649
33.00 0.83356
33.50 0.82069
34.00 0.80809
34.50 0.79572
35.00 0.78378
35.50 0.77248
36.00 0.76133
36.50 0.75038
37.00 0.73948
37.50 0.73023
38.00 0.71990
38.50 0.70941
39.00 0.69895
39.50 0.69023
40.00 0.68048
40.50 0.66929
41.00 0.65785
41.50 0.64644
42.00 0.63499
42.50 0.62226
43.00 0.60991
43.50 0.59633
44.00 0.58306
44.50 0.56846
45.00 0.55413
45.50 0.53884
46.00 0.52394
46.50 0.50854
47.00 0.49317
47.50 0.47835
48.00 0.46386
48.50 0.45005
49.00 0.43720
49.50 0.42470
50.00 0.41274
50.50 0.40233
51.00 0.39498
51.50 0.38417
52.00 0.37325
52.50 0.36230
53.00 0.35424
53.50 0.34724
54.00 0.33897
54.50 0.32691
55.00 0.31477
55.50 0.30253
56.00 0.29037
56.50 0.27881
57.00 0.26715
57.50 0.25218
58.00 0.23638
58.50 0.22046
59.00 0.20192
59.50 0.18256
60.00 0.16415
60.50 0.15010
61.00 0.13598
61.50 0.12180
62.00 0.10471
62.50 0.08771
63.00 0.07684
63.50 0.06593
64.00 0.05764
64.50 0.04939
65.00 0.04237
65.50 0.03715
66.00 0.03192
66.50 0.02668
67.00 0.02245
67.50 0.01993
68.00 0.01740
68.50 0.01483
69.00 0.01226
69.50 0.01078
70.00 0.00945
70.50 0.00807
71.00 0.00670
71.50 0.00582
72.00 0.00510
72.50 0.00438
73.00 0.00365
73.50 0.00315
74.00 0.00276
74.50 0.00240
75.00 0.00204
75.50 0.00173
76.00 0.00153
76.50 0.00133
77.00 0.00117
77.50 0.00102
78.00 0.00088
78.50 0.00079
79.00 0.00070
79.50 0.00061
80.00 0.00055
80.50 0.00049
81.00 0.00045
81.50 0.00041
82.00 0.00037
82.50 0.00033
83.00 0.00030
83.50 0.00028
84.00 0.00026
84.50 0.00023
85.00 0.00021
85.50 0.00018
86.00 0.00016
86.50 0.00014
87.00 0.00012
87.50 0.00010
88.00 0.00008
88.50 0.00006
89.00 0.00006
89.50 0.00005
90.00 0.00004
90.00 0.00004
90.50 0.00005
91.00 0.00006
91.50 0.00006
92.00 0.00008
92.50 0.00010
93.00 0.00012
93.50 0.00014
94.00 0.00016
94.50 0.00018
95.00 0.00021
95.50 0.00023
96.00 0.00026
96.50 0.00028
97.00 0.00030
97.50 0.00033
98.00 0.00037
98.50 0.00041
99.00 0.00045
99.50 0.00049
100.00 0.00055
100.50 0.00061
101.00 0.00070
101.50 0.00079
102.00 0.00088
102.50 0.00102
103.00 0.00117
103.50 0.00133
104.00 0.00153
104.50 0.00173
105.00 0.00204
105.50 0.00240
106.00 0.00276
106.50 0.00315
107.00 0.00365
107.50 0.00438
108.00 0.00510
108.50 0.00582
109.00 0.00670
109.50 0.00807
110.00 0.00945
110.50 0.01078
111.00 0.01226
111.50 0.01483
112.00 0.01740
112.50 0.01993
113.00 0.02245
113.50 0.02668
114.00 0.03192
114.50 0.03715
115.00 0.04237
115.50 0.04939
116.00 0.05764
116.50 0.06593
117.00 0.07684
117.50 0.08771
118.00 0.10471
118.50 0.12180
119.00 0.13598
119.50 0.15010
120.00 0.16415
120.50 0.18256
121.00 0.20192
121.50 0.22046
122.00 0.23638
122.50 0.25218
123.00 0.26715
123.50 0.27881
124.00 0.29037
124.50 0.30253
125.00 0.31477
125.50 0.32691
126.00 0.33897
126.50 0.34724
127.00 0.35424
127.50 0.36230
128.00 0.37325
128.50 0.38417
129.00 0.39498
129.50 0.40233
130.00 0.41274
130.50 0.42470
131.00 0.43720
131.50 0.45005
132.00 0.46386
132.50 0.47835
133.00 0.49317
133.50 0.50854
134.00 0.52394
134.50 0.53884
135.00 0.55413
135.50 0.56846
136.00 0.58306
136.50 0.59633
137.00 0.60991
137.50 0.62226
138.00 0.63499
138.50 0.64644
139.00 0.65785
139.50 0.66929
140.00 0.68048
140.50 0.69023
141.00 0.69895
141.50 0.70941
142.00 0.71990
142.50 0.73023
143.00 0.73948
143.50 0.75038
144.00 0.76133
144.50 0.77248
145.00 0.78378
145.50 0.79572
146.00 0.80809
146.50 0.82069
147.00 0.83356
147.50 0.84649
148.00 0.85953
148.50 0.87297
149.00 0.88610
149.50 0.89965
150.00 0.91343
150.50 0.92725
151.00 0.94090
151.50 0.95402
152.00 0.96719
152.50 0.98139
153.00 0.99570
153.50 1.00876
154.00 1.01939
154.50 1.03004
155.00 1.04069
155.50 1.05257
156.00 1.06302
156.50 1.06651
157.00 1.07154
157.50 1.07764
158.00 1.08377
158.50 1.08697
159.00 1.08770
159.50 1.08847
160.00 1.08926
160.50 1.09210
161.00 1.09435
161.50 1.09548
162.00 1.09631
162.50 1.09722
163.00 1.09819
163.50 1.09936
164.00 1.10069
164.50 1.10208
165.00 1.10371
165.50 1.10546
166.00 1.10674
166.50 1.10796
167.00 1.10868
167.50 1.10939
168.00 1.11017
168.50 1.10887
169.00 1.10739
169.50 1.10599
170.00 1.10512
170.50 1.10434
171.00 1.10282
171.50 1.10063
172.00 1.09851
172.50 1.09709
173.00 1.09622
173.50 1.09542
174.00 1.09457
174.50 1.09380
175.00 1.09336
175.50 1.09320
176.00 1.09318
176.50 1.09383
177.00 1.09436
177.50 1.09471
178.00 1.09515
178.50 1.09575
179.00 1.09617
179.50 1.09667
180.00 1.09725
180.00 1.09725
180.50 1.09667
181.00 1.09617
181.50 1.09575
182.00 1.09515
182.50 1.09471
183.00 1.09436
183.50 1.09383
184.00 1.09318
184.50 1.09320
185.00 1.09336
185.50 1.09380
186.00 1.09457
186.50 1.09542
187.00 1.09622
187.50 1.09709
188.00 1.09851
188.50 1.10063
189.00 1.10282
189.50 1.10434
190.00 1.10512
190.50 1.10599
191.00 1.10739
191.50 1.10887
192.00 1.11017
192.50 1.10939
193.00 1.10868
193.50 1.10796
194.00 1.10674
194.50 1.10546
195.00 1.10371
195.50 1.10208
196.00 1.10069
196.50 1.09936
197.00 1.09819
197.50 1.09722
198.00 1.09631
198.50 1.09548
199.00 1.09435
199.50 1.09210
200.00 1.08926
200.50 1.08847
201.00 1.08770
201.50 1.08697
202.00 1.08377
202.50 1.07764
203.00 1.07154
203.50 1.06651
204.00 1.06302
204.50 1.05257
205.00 1.04069
205.50 1.03004
206.00 1.01939
206.50 1.00876
207.00 0.99570
207.50 0.98139
208.00 0.96719
208.50 0.95402
209.00 0.94090
209.50 0.92725
210.00 0.91343
210.50 0.89965
211.00 0.88610
211.50 0.87297
212.00 0.85953
212.50 0.84649
213.00 0.83356
213.50 0.82069
214.00 0.80809
214.50 0.79572
215.00 0.78378
215.50 0.77248
216.00 0.76133
216.50 0.75038
217.00 0.73948
217.50 0.73023
218.00 0.71990
218.50 0.70941
219.00 0.69895
219.50 0.69023
220.00 0.68048
220.50 0.66929
221.00 0.65785
221.50 0.64644
222.00 0.63499
222.50 0.62226
223.00 0.60991
223.50 0.59633
224.00 0.58306
224.50 0.56846
225.00 0.55413
225.50 0.53884
226.00 0.52394
226.50 0.50854
227.00 0.49317
227.50 0.47835
228.00 0.46386
228.50 0.45005
229.00 0.43720
229.50 0.42470
230.00 0.41274
230.50 0.40233
231.00 0.39498
231.50 0.38417
232.00 0.37325
232.50 0.36230
233.00 0.35424
233.50 0.34724
234.00 0.33897
234.50 0.32691
235.00 0.31477
235.50 0.30253
236.00 0.29037
236.50 0.27881
237.00 0.26715
237.50 0.25218
238.00 0.23638
238.50 0.22046
239.00 0.20192
239.50 0.18256
240.00 0.16415
240.50 0.15010
241.00 0.13598
241.50 0.12180
242.00 0.10471
242.50 0.08771
243.00 0.07684
243.50 0.06593
244.00 0.05764
244.50 0.04939
245.00 0.04237
245.50 0.03715
246.00 0.03192
246.50 0.02668
247.00 0.02245
247.50 0.01993
248.00 0.01740
248.50 0.01483
249.00 0.01226
249.50 0.01078
250.00 0.00945
250.50 0.00807
251.00 0.00670
251.50 0.00582
252.00 0.00510
252.50 0.00438
253.00 0.00365
253.50 0.00315
254.00 0.00276
254.50 0.00240
255.00 0.00204
255.50 0.00173
256.00 0.00153
256.50 0.00133
257.00 0.00117
257.50 0.00102
258.00 0.00088
258.50 0.00079
259.00 0.00070
259.50 0.00061
260.00 0.00055
260.50 0.00049
261.00 0.00045
261.50 0.00041
262.00 0.00037
262.50 0.00033
263.00 0.00030
263.50 0.00028
264.00 0.00026
264.50 0.00023
265.00 0.00021
265.50 0.00018
266.00 0.00016
266.50 0.00014
267.00 0.00012
267.50 0.00010
268.00 0.00008
268.50 0.00006
269.00 0.00006
269.50 0.00005
270.00 0.00004
270.00 0.00004
270.50 0.00005
271.00 0.00006
271.50 0.00006
272.00 0.00008
272.50 0.00010
273.00 0.00012
273.50 0.00014
274.00 0.00016
274.50 0.00018
275.00 0.00021
275.50 0.00023
276.00 0.00026
276.50 0.00028
277.00 0.00030
277.50 0.00033
278.00 0.00037
278.50 0.00041
279.00 0.00045
279.50 0.00049
280.00 0.00055
280.50 0.00061
281.00 0.00070
281.50 0.00079
282.00 0.00088
282.50 0.00102
283.00 0.00117
283.50 0.00133
284.00 0.00153
284.50 0.00173
285.00 0.00204
285.50 0.00240
286.00 0.00276
286.50 0.00315
287.00 0.00365
287.50 0.00438
288.00 0.00510
288.50 0.00582
289.00 0.00670
289.50 0.00807
290.00 0.00945
290.50 0.01078
291.00 0.01226
291.50 0.01483
292.00 0.01740
292.50 0.01993
293.00 0.02245
293.50 0.02668
294.00 0.03192
294.50 0.03715
295.00 0.04237
295.50 0.04939
296.00 0.05764
296.50 0.06593
297.00 0.07684
297.50 0.08771
298.00 0.10471
298.50 0.12180
299.00 0.13598
299.50 0.15010
300.00 0.16415
300.50 0.18256
301.00 0.20192
301.50 0.22046
302.00 0.23638
302.50 0.25218
303.00 0.26715
303.50 0.27881
304.00 0.29037
304.50 0.30253
305.00 0.31477
305.50 0.32691
306.00 0.33897
306.50 0.34724
307.00 0.35424
307.50 0.36230
308.00 0.37325
308.50 0.38417
309.00 0.39498
309.50 0.40233
310.00 0.41274
310.50 0.42470
311.00 0.43720
311.50 0.45005
312.00 0.46386
312.50 0.47835
313.00 0.49317
313.50 0.50854
314.00 0.52394
314.50 0.53884
315.00 0.55413
315.50 0.56846
316.00 0.58306
316.50 0.59633
317.00 0.60991
317.50 0.62226
318.00 0.63499
318.50 0.64644
319.00 0.65785
319.50 0.66929
320.00 0.68048
320.50 0.69023
321.00 0.69895
321.50 0.70941
322.00 0.71990
322.50 0.73023
323.00 0.73948
323.50 0.75038
324.00 0.76133
324.50 0.77248
325.00 0.78378
325.50 0.79572
326.00 0.80809
326.50 0.82069
327.00 0.83356
327.50 0.84649
328.00 0.85953
328.50 0.87297
329.00 0.88610
329.50 0.89965
330.00 0.91343
330.50 0.92725
331.00 0.94090
331.50 0.95402
332.00 0.96719
332.50 0.98139
333.00 0.99570
333.50 1.00876
334.00 1.01939
334.50 1.03004
335.00 1.04069
335.50 1.05257
336.00 1.06302
336.50 1.06651
337.00 1.07154
337.50 1.07764
338.00 1.08377
338.50 1.08697
339.00 1.08770
339.50 1.08847
340.00 1.08926
340.50 1.09210
341.00 1.09435
341.50 1.09548
342.00 1.09631
342.50 1.09722
343.00 1.09819
343.50 1.09936
344.00 1.10069
344.50 1.10208
345.00 1.10371
345.50 1.10546
346.00 1.10674
346.50 1.10796
347.00 1.10868
347.50 1.10939
348.00 1.11017
348.50 1.10887
349.00 1.10739
349.50 1.10599
350.00 1.10512
350.50 1.10434
351.00 1.10282
351.50 1.10063
352.00 1.09851
352.50 1.09709
353.00 1.09622
353.50 1.09542
354.00 1.09457
354.50 1.09380
355.00 1.09336
355.50 1.09320
356.00 1.09318
356.50 1.09383
357.00 1.09436
357.50 1.09471
358.00 1.09515
358.50 1.09575
359.00 1.09617
359.50 1.09667
360.00 1.09725
