phi[deg] B[T]
0.00 1.48150
0.50 1.48139
1.00 1.48140
1.50 1.48153
2.00 1.48178
2.50 1.48215
3.00 1.48279
3.50 1.48356
4.00 1.48445
4.50 1.48546
5.00 1.48658
5.50 1.48730
6.00 1.48794
6.50 1.48870
7.00 1.48957
7.50 1.49096
8.00 1.49277
8.50 1.49472
9.00 1.49683
9.50 1.49732
10.00 1.49767
10.50 1.49811
11.00 1.49864
11.50 1.49926
12.00 1.49997
12.50 1.50077
13.00 1.50171
13.50 1.50326
14.00 1.50246
14.50 1.50163
15.00 1.50087
15.50 1.50017
16.00 1.49953
16.50 1.49896
17.00 1.49845
17.50 1.49800
18.00 1.49783
18.50 1.49437
19.00 1.48994
19.50 1.48551
20.00 1.48108
20.50 1.47665
21.00 1.47222
21.50 1.46778
22.00 1.46334
22.50 1.45890
23.00 1.44925
23.50 1.43741
24.00 1.42555
24.50 1.41367
25.00 1.40177
25.50 1.38986
26.00 1.37793
26.50 1.36598
27.00 1.35331
27.50 1.33676
28.00 1.32075
28.50 1.30476
29.00 1.28880
29.50 1.27286
30.00 1.25695
30.50 1.24106
31.00 1.22461
31.50 1.20801
32.00 1.19096
32.50 1.17366
33.00 1.15640
33.50 1.13917
34.00 1.12247
34.50 1.10691
35.00 1.09001
35.50 1.07305
36.00 1.05612
36.50 1.03966
37.00 1.02476
37.50 1.00988
38.00 0.99339
38.50 0.97576
39.00 0.95814
39.50 0.94184
40.00 0.92489
40.50 0.90756
41.00 0.89081
41.50 0.87418
42.00 0.85641
42.50 0.83899
43.00 0.82235
43.50 0.80533
44.00 0.78782
44.50 0.77028
45.00 0.75244
45.50 0.73473
46.00 0.71779
46.50 0.70081
47.00 0.68435
47.50 0.66801
48.00 0.65065
48.50 0.63280
49.00 0.61612
49.50 0.59938
50.00 0.58227
50.50 0.56293
51.00 0.54546
51.50 0.52787
52.00 0.51017
52.50 0.49498
53.00 0.47792
53.50 0.45596
54.00 0.43386
54.50 0.41269
55.00 0.39228
55.50 0.37178
56.00 0.35117
56.50 0.32849
57.00 0.30539
57.50 0.28220
58.00 0.26048
58.50 0.24334
59.00 0.22614
59.50 0.20890
60.00 0.19160
60.50 0.17425
61.00 0.15497
61.50 0.13544
62.00 0.12355
62.50 0.11349
63.00 0.10343
63.50 0.09374
64.00 0.08412
64.50 0.07451
65.00 0.06709
65.50 0.06210
66.00 0.05711
66.50 0.05212
67.00 0.04713
67.50 0.04213
68.00 0.03713
68.50 0.03202
69.00 0.02943
69.50 0.02720
70.00 0.02496
70.50 0.02273
71.00 0.02051
71.50 0.01828
72.00 0.01606
72.50 0.01384
73.00 0.01258
73.50 0.01165
74.00 0.01072
74.50 0.00979
75.00 0.00886
75.50 0.00793
76.00 0.00701
76.50 0.00608
77.00 0.00550
77.50 0.00509
78.00 0.00467
78.50 0.00425
79.00 0.00383
79.50 0.00341
80.00 0.00299
80.50 0.00268
81.00 0.00247
81.50 0.00227
82.00 0.00208
82.50 0.00188
83.00 0.00168
83.50 0.00155
84.00 0.00142
84.50 0.00130
85.00 0.00120
85.50 0.00111
86.00 0.00104
86.50 0.00098
87.00 0.00093
87.50 0.00088
88.00 0.00083
88.50 0.00081
89.00 0.00079
89.50 0.00076
90.00 0.00074
90.00 0.00074
90.50 0.00076
91.00 0.00079
91.50 0.00081
92.00 0.00083
92.50 0.00088
93.00 0.00093
93.50 0.00098
94.00 0.00104
94.50 0.00111
95.00 0.00120
95.50 0.00130
96.00 0.00142
96.50 0.00155
97.00 0.00168
97.50 0.00188
98.00 0.00208
98.50 0.00227
99.00 0.00247
99.50 0.00268
100.00 0.00299
100.50 0.00341
101.00 0.00383
101.50 0.00425
102.00 0.00467
102.50 0.00509
103.00 0.00550
103.50 0.00608
104.00 0.00701
104.50 0.00793
105.00 0.00886
105.50 0.00979
106.00 0.01072
106.50 0.01165
107.00 0.01258
107.50 0.01384
108.00 0.01606
108.50 0.01828
109.00 0.02051
109.50 0.02273
110.00 0.02496
110.50 0.02720
111.00 0.02943
111.50 0.03202
112.00 0.03713
112.50 0.04213
113.00 0.04713
113.50 0.05212
114.00 0.05711
114.50 0.06210
115.00 0.06709
115.50 0.07451
116.00 0.08412
116.50 0.09374
117.00 0.10343
117.50 0.11349
118.00 0.12355
118.50 0.13544
119.00 0.15497
119.50 0.17425
120.00 0.19160
120.50 0.20890
121.00 0.22614
121.50 0.24334
122.00 0.26048
122.50 0.28220
123.00 0.30539
123.50 0.32849
124.00 0.35117
124.50 0.37178
125.00 0.39228
125.50 0.41269
126.00 0.43386
126.50 0.45596
127.00 0.47792
127.50 0.49498
128.00 0.51017
128.50 0.52787
129.00 0.54546
129.50 0.56293
130.00 0.58227
130.50 0.59938
131.00 0.61612
131.50 0.63280
132.00 0.65065
132.50 0.66801
133.00 0.68435
133.50 0.70081
134.00 0.71779
134.50 0.73473
135.00 0.75244
135.50 0.77028
136.00 0.78782
136.50 0.80533
137.00 0.82235
137.50 0.83899
138.00 0.85641
138.50 0.87418
139.00 0.89081
139.50 0.90756
140.00 0.92489
140.50 0.94184
141.00 0.95814
141.50 0.97576
142.00 0.99339
142.50 1.00988
143.00 1.02476
143.50 1.03966
144.00 1.05612
144.50 1.07305
145.00 1.09001
145.50 1.10691
146.00 1.12247
146.50 1.13917
147.00 1.15640
147.50 1.17366
148.00 1.19096
148.50 1.20801
149.00 1.22461
149.50 1.24106
150.00 1.25695
150.50 1.27286
151.00 1.28880
151.50 1.30476
152.00 1.32075
152.50 1.33676
153.00 1.35331
153.50 1.36598
154.00 1.37793
154.50 1.38986
155.00 1.40177
155.50 1.41367
156.00 1.42555
156.50 1.43741
157.00 1.44925
157.50 1.45890
158.00 1.46334
158.50 1.46778
159.00 1.47222
159.50 1.47665
160.00 1.48108
160.50 1.48551
161.00 1.48994
161.50 1.49437
162.00 1.49783
162.50 1.49800
163.00 1.49845
163.50 1.49896
164.00 1.49953
164.50 1.50017
165.00 1.50087
165.50 1.50163
166.00 1.50246
166.50 1.50326
167.00 1.50171
167.50 1.50077
168.00 1.49997
168.50 1.49926
169.00 1.49864
169.50 1.49811
170.00 1.49767
170.50 1.49732
171.00 1.49683
171.50 1.49472
172.00 1.49277
172.50 1.49096
173.00 1.48957
173.50 1.48870
174.00 1.48794
174.50 1.48730
175.00 1.48658
175.50 1.48546
176.00 1.48445
176.50 1.48356
177.00 1.48279
177.50 1.48215
178.00 1.48178
178.50 1.48153
179.00 1.48140
179.50 1.48139
180.00 1.48150
180.00 1.48150
180.50 1.48139
181.00 1.48140
181.50 1.48153
182.00 1.48178
182.50 1.48215
183.00 1.48279
183.50 1.48356
184.00 1.48445
184.50 1.48546
185.00 1.48658
185.50 1.48730
186.00 1.48794
186.50 1.48870
187.00 1.48957
187.50 1.49096
188.00 1.49277
188.50 1.49472
189.00 1.49683
189.50 1.49732
190.00 1.49767
190.50 1.49811
191.00 1.49864
191.50 1.49926
192.00 1.49997
192.50 1.50077
193.00 1.50171
193.50 1.50326
194.00 1.50246
194.50 1.50163
195.00 1.50087
195.50 1.50017
196.00 1.49953
196.50 1.49896
197.00 1.49845
197.50 1.49800
198.00 1.49783
198.50 1.49437
199.00 1.48994
199.50 1.48551
200.00 1.48108
200.50 1.47665
201.00 1.47222
201.50 1.46778
202.00 1.46334
202.50 1.45890
203.00 1.44925
203.50 1.43741
204.00 1.42555
204.50 1.41367
205.00 1.40177
205.50 1.38986
206.00 1.37793
206.50 1.36598
207.00 1.35331
207.50 1.33676
208.00 1.32075
208.50 1.30476
209.00 1.28880
209.50 1.27286
210.00 1.25695
210.50 1.24106
211.00 1.22461
211.50 1.20801
212.00 1.19096
212.50 1.17366
213.00 1.15640
213.50 1.13917
214.00 1.12247
214.50 1.10691
215.00 1.09001
215.50 1.07305
216.00 1.05612
216.50 1.03966
217.00 1.02476
217.50 1.00988
218.00 0.99339
218.50 0.97576
219.00 0.95814
219.50 0.94184
220.00 0.92489
220.50 0.90756
221.00 0.89081
221.50 0.87418
222.00 0.85641
222.50 0.83899
223.00 0.82235
223.50 0.80533
224.00 0.78782
224.50 0.77028
225.00 0.75244
225.50 0.73473
226.00 0.71779
226.50 0.70081
227.00 0.68435
227.50 0.66801
228.00 0.65065
228.50 0.63280
229.00 0.61612
229.50 0.59938
230.00 0.58227
230.50 0.56293
231.00 0.54546
231.50 0.52787
232.00 0.51017
232.50 0.49498
233.00 0.47792
233.50 0.45596
234.00 0.43386
234.50 0.41269
235.00 0.39228
235.50 0.37178
236.00 0.35117
236.50 0.32849
237.00 0.30539
237.50 0.28220
238.00 0.26048
238.50 0.24334
239.00 0.22614
239.50 0.20890
240.00 0.19160
240.50 0.17425
241.00 0.15497
241.50 0.13544
242.00 0.12355
242.50 0.11349
243.00 0.10343
243.50 0.09374
244.00 0.08412
244.50 0.07451
245.00 0.06709
245.50 0.06210
246.00 0.05711
246.50 0.05212
247.00 0.04713
247.50 0.04213
248.00 0.03713
248.50 0.03202
249.00 0.02943
249.50 0.02720
250.00 0.02496
250.50 0.02273
251.00 0.02051
251.50 0.01828
252.00 0.01606
252.50 0.01384
253.00 0.01258
253.50 0.01165
254.00 0.01072
254.50 0.00979
255.00 0.00886
255.50 0.00793
256.00 0.00701
256.50 0.00608
257.00 0.00550
257.50 0.00509
258.00 0.00467
258.50 0.00425
259.00 0.00383
259.50 0.00341
260.00 0.00299
260.50 0.00268
261.00 0.00247
261.50 0.00227
262.00 0.00208
262.50 0.00188
263.00 0.00168
263.50 0.00155
264.00 0.00142
264.50 0.00130
265.00 0.00120
265.50 0.00111
266.00 0.00104
266.50 0.00098
267.00 0.00093
267.50 0.00088
268.00 0.00083
268.50 0.00081
269.00 0.00079
269.50 0.00076
270.00 0.00074
270.00 0.00074
270.50 0.00076
271.00 0.00079
271.50 0.00081
272.00 0.00083
272.50 0.00088
273.00 0.00093
273.50 0.00098
274.00 0.00104
274.50 0.00111
275.00 0.00120
275.50 0.00130
276.00 0.00142
276.50 0.00155
277.00 0.00168
277.50 0.00188
278.00 0.00208
278.50 0.00227
279.00 0.00247
279.50 0.00268
280.00 0.00299
280.50 0.00341
281.00 0.00383
281.50 0.00425
282.00 0.00467
282.50 0.00509
283.00 0.00550
283.50 0.00608
284.00 0.00701
284.50 0.00793
285.00 0.00886
285.50 0.00979
286.00 0.01072
286.50 0.01165
287.00 0.01258
287.50 0.01384
288.00 0.01606
288.50 0.01828
289.00 0.02051
289.50 0.02273
290.00 0.02496
290.50 0.02720
291.00 0.02943
291.50 0.03202
292.00 0.03713
292.50 0.04213
293.00 0.04713
293.50 0.05212
294.00 0.05711
294.50 0.06210
295.00 0.06709
295.50 0.07451
296.00 0.08412
296.50 0.09374
297.00 0.10343
297.50 0.11349
298.00 0.12355
298.50 0.13544
299.00 0.15497
299.50 0.17425
300.00 0.19160
300.50 0.20890
301.00 0.22614
301.50 0.24334
302.00 0.26048
302.50 0.28220
303.00 0.30539
303.50 0.32849
304.00 0.35117
304.50 0.37178
305.00 0.39228
305.50 0.41269
306.00 0.43386
306.50 0.45596
307.00 0.47792
307.50 0.49498
308.00 0.51017
308.50 0.52787
309.00 0.54546
309.50 0.56293
310.00 0.58227
310.50 0.59938
311.00 0.61612
311.50 0.63280
312.00 0.65065
312.50 0.66801
313.00 0.68435
313.50 0.70081
314.00 0.71779
314.50 0.73473
315.00 0.75244
315.50 0.77028
316.00 0.78782
316.50 0.80533
317.00 0.82235
317.50 0.83899
318.00 0.85641
318.50 0.87418
319.00 0.89081
319.50 0.90756
320.00 0.92489
320.50 0.94184
321.00 0.95814
321.50 0.97576
322.00 0.99339
322.50 1.00988
323.00 1.02476
323.50 1.03966
324.00 1.05612
324.50 1.07305
325.00 1.09001
325.50 1.10691
326.00 1.12247
326.50 1.13917
327.00 1.15640
327.50 1.17366
328.00 1.19096
328.50 1.20801
329.00 1.22461
329.50 1.24106
330.00 1.25695
330.50 1.27286
331.00 1.28880
331.50 1.30476
332.00 1.32075
332.50 1.33676
333.00 1.35331
333.50 1.36598
334.00 1.37793
334.50 1.38986
335.00 1.40177
335.50 1.41367
336.00 1.42555
336.50 1.43741
337.00 1.44925
337.50 1.45890
338.00 1.46334
338.50 1.46778
339.00 1.47222
339.50 1.47665
340.00 1.48108
340.50 1.48551
341.00 1.48994
341.50 1.49437
342.00 1.49783
342.50 1.49800
343.00 1.49845
343.50 1.49896
344.00 1.49953
344.50 1.50017
345.00 1.50087
345.50 1.50163
346.00 1.50246
346.50 1.50326
347.00 1.50171
347.50 1.50077
348.00 1.49997
348.50 1.49926
349.00 1.49864
349.50 1.49811
350.00 1.49767
350.50 1.49732
351.00 1.49683
351.50 1.49472
352.00 1.49277
352.50 1.49096
353.00 1.48957
353.50 1.48870
354.00 1.48794
354.50 1.48730
355.00 1.48658
355.50 1.48546
356.00 1.48445
356.50 1.48356
357.00 1.48279
357.50 1.48215
358.00 1.48178
358.50 1.48153
359.00 1.48140
359.50 1.48139
360.00 1.48150
