phi[deg] B[T]
0.00 1.77144
0.50 1.77082
1.00 1.77033
1.50 1.76998
2.00 1.76975
2.50 1.76959
3.00 1.76945
3.50 1.76944
4.00 1.76956
4.50 1.76981
5.00 1.77022
5.50 1.77079
6.00 1.77149
6.50 1.77167
7.00 1.77198
7.50 1.77241
8.00 1.77332
8.50 1.77437
9.00 1.77555
9.50 1.77558
10.00 1.77459
10.50 1.77383
11.00 1.77471
11.50 1.77570
12.00 1.77547
12.50 1.77401
13.00 1.77161
13.50 1.76867
14.00 1.76582
14.50 1.76306
15.00 1.76038
15.50 1.75780
16.00 1.75527
16.50 1.75271
17.00 1.75048
17.50 1.74574
18.00 1.74076
18.50 1.73585
19.00 1.73100
19.50 1.72623
20.00 1.72151
20.50 1.71764
21.00 1.71549
21.50 1.70906
22.00 1.70017
22.50 1.69128
23.00 1.68205
23.50 1.67285
24.00 1.66369
24.50 1.65264
25.00 1.63950
25.50 1.62642
26.00 1.61277
26.50 1.59756
27.00 1.58240
27.50 1.56782
28.00 1.55329
28.50 1.53860
29.00 1.52348
29.50 1.50834
30.00 1.49110
30.50 1.47389
31.00 1.45672
31.50 1.43958
32.00 1.42291
32.50 1.40799
33.00 1.39310
33.50 1.37437
34.00 1.35454
34.50 1.33470
35.00 1.31488
35.50 1.29499
36.00 1.27500
36.50 1.25435
37.00 1.23372
37.50 1.21288
38.00 1.19048
38.50 1.16808
39.00 1.14561
39.50 1.12345
40.00 1.10165
40.50 1.07981
41.00 1.05780
41.50 1.03581
42.00 1.01450
42.50 0.99325
43.00 0.97190
43.50 0.95054
44.00 0.92908
44.50 0.90758
45.00 0.88602
45.50 0.86462
46.00 0.84332
46.50 0.82199
47.00 0.80014
47.50 0.77826
48.00 0.75583
48.50 0.73416
49.00 0.71245
49.50 0.69152
50.00 0.67100
50.50 0.64934
51.00 0.62649
51.50 0.60358
52.00 0.58317
52.50 0.56350
53.00 0.54377
53.50 0.52380
54.00 0.50363
54.50 0.48339
55.00 0.46308
55.50 0.44130
56.00 0.41938
56.50 0.39828
57.00 0.37746
57.50 0.35657
58.00 0.33559
58.50 0.31454
59.00 0.29487
59.50 0.27514
60.00 0.25499
60.50 0.23477
61.00 0.21449
61.50 0.19415
62.00 0.17973
62.50 0.16638
63.00 0.15301
63.50 0.13960
64.00 0.12599
64.50 0.11140
65.00 0.09680
65.50 0.08569
66.00 0.07831
66.50 0.07092
67.00 0.06451
67.50 0.05820
68.00 0.05189
68.50 0.04558
69.00 0.04002
69.50 0.03637
70.00 0.03270
70.50 0.02903
71.00 0.02602
71.50 0.02355
72.00 0.02109
72.50 0.01863
73.00 0.01668
73.50 0.01506
74.00 0.01343
74.50 0.01180
75.00 0.01075
75.50 0.00979
76.00 0.00884
76.50 0.00789
77.00 0.00695
77.50 0.00616
78.00 0.00538
78.50 0.00491
79.00 0.00450
79.50 0.00410
80.00 0.00371
80.50 0.00332
81.00 0.00293
81.50 0.00254
82.00 0.00231
82.50 0.00210
83.00 0.00190
83.50 0.00171
84.00 0.00155
84.50 0.00138
85.00 0.00123
85.50 0.00115
86.00 0.00107
86.50 0.00099
87.00 0.00092
87.50 0.00084
88.00 0.00080
88.50 0.00077
89.00 0.00074
89.50 0.00071
90.00 0.00068
90.00 0.00068
90.50 0.00071
91.00 0.00074
91.50 0.00077
92.00 0.00080
92.50 0.00084
93.00 0.00092
93.50 0.00099
94.00 0.00107
94.50 0.00115
95.00 0.00123
95.50 0.00138
96.00 0.00155
96.50 0.00171
97.00 0.00190
97.50 0.00210
98.00 0.00231
98.50 0.00254
99.00 0.00293
99.50 0.00332
100.00 0.00371
100.50 0.00410
101.00 0.00450
101.50 0.00491
102.00 0.00538
102.50 0.00616
103.00 0.00695
103.50 0.00789
104.00 0.00884
104.50 0.00979
105.00 0.01075
105.50 0.01180
106.00 0.01343
106.50 0.01506
107.00 0.01668
107.50 0.01863
108.00 0.02109
108.50 0.02355
109.00 0.02602
109.50 0.02903
110.00 0.03270
110.50 0.03637
111.00 0.04002
111.50 0.04558
112.00 0.05189
112.50 0.05820
113.00 0.06451
113.50 0.07092
114.00 0.07831
114.50 0.08569
115.00 0.09680
115.50 0.11140
116.00 0.12599
116.50 0.13960
117.00 0.15301
117.50 0.16638
118.00 0.17973
118.50 0.19415
119.00 0.21449
119.50 0.23477
120.00 0.25499
120.50 0.27514
121.00 0.29487
121.50 0.31454
122.00 0.33559
122.50 0.35657
123.00 0.37746
123.50 0.39828
124.00 0.41938
124.50 0.44130
125.00 0.46308
125.50 0.48339
126.00 0.50363
126.50 0.52380
127.00 0.54377
127.50 0.56350
128.00 0.58317
128.50 0.60358
129.00 0.62649
129.50 0.64934
130.00 0.67100
130.50 0.69152
131.00 0.71245
131.50 0.73416
132.00 0.75583
132.50 0.77826
133.00 0.80014
133.50 0.82199
134.00 0.84332
134.50 0.86462
135.00 0.88602
135.50 0.90758
136.00 0.92908
136.50 0.95054
137.00 0.97190
137.50 0.99325
138.00 1.01450
138.50 1.03581
139.00 1.05780
139.50 1.07981
140.00 1.10165
140.50 1.12345
141.00 1.14561
141.50 1.16808
142.00 1.19048
142.50 1.21288
143.00 1.23372
143.50 1.25435
144.00 1.27500
144.50 1.29499
145.00 1.31488
145.50 1.33470
146.00 1.35454
146.50 1.37437
147.00 1.39310
147.50 1.40799
148.00 1.42291
148.50 1.43958
149.00 1.45672
149.50 1.47389
150.00 1.49110
150.50 1.50834
151.00 1.52348
151.50 1.53860
152.00 1.55329
152.50 1.56782
153.00 1.58240
153.50 1.59756
154.00 1.61277
154.50 1.62642
155.00 1.63950
155.50 1.65264
156.00 1.66369
156.50 1.67285
157.00 1.68205
157.50 1.69128
158.00 1.70017
158.50 1.70906
159.00 1.71549
159.50 1.71764
160.00 1.72151
160.50 1.72623
161.00 1.73100
161.50 1.73585
162.00 1.74076
162.50 1.74574
163.00 1.75048
163.50 1.75271
164.00 1.75527
164.50 1.75780
165.00 1.76038
165.50 1.76306
166.00 1.76582
166.50 1.76867
167.00 1.77161
167.50 1.77401
168.00 1.77547
168.50 1.77570
169.00 1.77471
169.50 1.77383
170.00 1.77459
170.50 1.77558
171.00 1.77555
171.50 1.77437
172.00 1.77332
172.50 1.77241
173.00 1.77198
173.50 1.77167
174.00 1.77149
174.50 1.77079
175.00 1.77022
175.50 1.76981
176.00 1.76956
176.50 1.76944
177.00 1.76945
177.50 1.76959
178.00 1.76975
178.50 1.76998
179.00 1.77033
179.50 1.77082
180.00 1.77144
180.00 1.77144
180.50 1.77082
181.00 1.77033
181.50 1.76998
182.00 1.76975
182.50 1.76959
183.00 1.76945
183.50 1.76944
184.00 1.76956
184.50 1.76981
185.00 1.77022
185.50 1.77079
186.00 1.77149
186.50 1.77167
187.00 1.77198
187.50 1.77241
188.00 1.77332
188.50 1.77437
189.00 1.77555
189.50 1.77558
190.00 1.77459
190.50 1.77383
191.00 1.77471
191.50 1.77570
192.00 1.77547
192.50 1.77401
193.00 1.77161
193.50 1.76867
194.00 1.76582
194.50 1.76306
195.00 1.76038
195.50 1.75780
196.00 1.75527
196.50 1.75271
197.00 1.75048
197.50 1.74574
198.00 1.74076
198.50 1.73585
199.00 1.73100
199.50 1.72623
200.00 1.72151
200.50 1.71764
201.00 1.71549
201.50 1.70906
202.00 1.70017
202.50 1.69128
203.00 1.68205
203.50 1.67285
204.00 1.66369
204.50 1.65264
205.00 1.63950
205.50 1.62642
206.00 1.61277
206.50 1.59756
207.00 1.58240
207.50 1.56782
208.00 1.55329
208.50 1.53860
209.00 1.52348
209.50 1.50834
210.00 1.49110
210.50 1.47389
211.00 1.45672
211.50 1.43958
212.00 1.42291
212.50 1.40799
213.00 1.39310
213.50 1.37437
214.00 1.35454
214.50 1.33470
215.00 1.31488
215.50 1.29499
216.00 1.27500
216.50 1.25435
217.00 1.23372
217.50 1.21288
218.00 1.19048
218.50 1.16808
219.00 1.14561
219.50 1.12345
220.00 1.10165
220.50 1.07981
221.00 1.05780
221.50 1.03581
222.00 1.01450
222.50 0.99325
223.00 0.97190
223.50 0.95054
224.00 0.92908
224.50 0.90758
225.00 0.88602
225.50 0.86462
226.00 0.84332
226.50 0.82199
227.00 0.80014
227.50 0.77826
228.00 0.75583
228.50 0.73416
229.00 0.71245
229.50 0.69152
230.00 0.67100
230.50 0.64934
231.00 0.62649
231.50 0.60358
232.00 0.58317
232.50 0.56350
233.00 0.54377
233.50 0.52380
234.00 0.50363
234.50 0.48339
235.00 0.46308
235.50 0.44130
236.00 0.41938
236.50 0.39828
237.00 0.37746
237.50 0.35657
238.00 0.33559
238.50 0.31454
239.00 0.29487
239.50 0.27514
240.00 0.25499
240.50 0.23477
241.00 0.21449
241.50 0.19415
242.00 0.17973
242.50 0.16638
243.00 0.15301
243.50 0.13960
244.00 0.12599
244.50 0.11140
245.00 0.09680
245.50 0.08569
246.00 0.07831
246.50 0.07092
247.00 0.06451
247.50 0.05820
248.00 0.05189
248.50 0.04558
249.00 0.04002
249.50 0.03637
250.00 0.03270
250.50 0.02903
251.00 0.02602
251.50 0.02355
252.00 0.02109
252.50 0.01863
253.00 0.01668
253.50 0.01506
254.00 0.01343
254.50 0.01180
255.00 0.01075
255.50 0.00979
256.00 0.00884
256.50 0.00789
257.00 0.00695
257.50 0.00616
258.00 0.00538
258.50 0.00491
259.00 0.00450
259.50 0.00410
260.00 0.00371
260.50 0.00332
261.00 0.00293
261.50 0.00254
262.00 0.00231
262.50 0.00210
263.00 0.00190
263.50 0.00171
264.00 0.00155
264.50 0.00138
265.00 0.00123
265.50 0.00115
266.00 0.00107
266.50 0.00099
267.00 0.00092
267.50 0.00084
268.00 0.00080
268.50 0.00077
269.00 0.00074
269.50 0.00071
270.00 0.00068
270.00 0.00068
270.50 0.00071
271.00 0.00074
271.50 0.00077
272.00 0.00080
272.50 0.00084
273.00 0.00092
273.50 0.00099
274.00 0.00107
274.50 0.00115
275.00 0.00123
275.50 0.00138
276.00 0.00155
276.50 0.00171
277.00 0.00190
277.50 0.00210
278.00 0.00231
278.50 0.00254
279.00 0.00293
279.50 0.00332
280.00 0.00371
280.50 0.00410
281.00 0.00450
281.50 0.00491
282.00 0.00538
282.50 0.00616
283.00 0.00695
283.50 0.00789
284.00 0.00884
284.50 0.00979
285.00 0.01075
285.50 0.01180
286.00 0.01343
286.50 0.01506
287.00 0.01668
287.50 0.01863
288.00 0.02109
288.50 0.02355
289.00 0.02602
289.50 0.02903
290.00 0.03270
290.50 0.03637
291.00 0.04002
291.50 0.04558
292.00 0.05189
292.50 0.05820
293.00 0.06451
293.50 0.07092
294.00 0.07831
294.50 0.08569
295.00 0.09680
295.50 0.11140
296.00 0.12599
296.50 0.13960
297.00 0.15301
297.50 0.16638
298.00 0.17973
298.50 0.19415
299.00 0.21449
299.50 0.23477
300.00 0.25499
300.50 0.27514
301.00 0.29487
301.50 0.31454
302.00 0.33559
302.50 0.35657
303.00 0.37746
303.50 0.39828
304.00 0.41938
304.50 0.44130
305.00 0.46308
305.50 0.48339
306.00 0.50363
306.50 0.52380
307.00 0.54377
307.50 0.56350
308.00 0.58317
308.50 0.60358
309.00 0.62649
309.50 0.64934
310.00 0.67100
310.50 0.69152
311.00 0.71245
311.50 0.73416
312.00 0.75583
312.50 0.77826
313.00 0.80014
313.50 0.82199
314.00 0.84332
314.50 0.86462
315.00 0.88602
315.50 0.90758
316.00 0.92908
316.50 0.95054
317.00 0.97190
317.50 0.99325
318.00 1.01450
318.50 1.03581
319.00 1.05780
319.50 1.07981
320.00 1.10165
320.50 1.12345
321.00 1.14561
321.50 1.16808
322.00 1.19048
322.50 1.21288
323.00 1.23372
323.50 1.25435
324.00 1.27500
324.50 1.29499
325.00 1.31488
325.50 1.33470
326.00 1.35454
326.50 1.37437
327.00 1.39310
327.50 1.40799
328.00 1.42291
328.50 1.43958
329.00 1.45672
329.50 1.47389
330.00 1.49110
330.50 1.50834
331.00 1.52348
331.50 1.53860
332.00 1.55329
332.50 1.56782
333.00 1.58240
333.50 1.59756
334.00 1.61277
334.50 1.62642
335.00 1.63950
335.50 1.65264
336.00 1.66369
336.50 1.67285
337.00 1.68205
337.50 1.69128
338.00 1.70017
338.50 1.70906
339.00 1.71549
339.50 1.71764
340.00 1.72151
340.50 1.72623
341.00 1.73100
341.50 1.73585
342.00 1.74076
342.50 1.74574
343.00 1.75048
343.50 1.75271
344.00 1.75527
344.50 1.75780
345.00 1.76038
345.50 1.76306
346.00 1.76582
346.50 1.76867
347.00 1.77161
347.50 1.77401
348.00 1.77547
348.50 1.77570
349.00 1.77471
349.50 1.77383
350.00 1.77459
350.50 1.77558
351.00 1.77555
351.50 1.77437
352.00 1.77332
352.50 1.77241
353.00 1.77198
353.50 1.77167
354.00 1.77149
354.50 1.77079
355.00 1.77022
355.50 1.76981
356.00 1.76956
356.50 1.76944
357.00 1.76945
357.50 1.76959
358.00 1.76975
358.50 1.76998
359.00 1.77033
359.50 1.77082
360.00 1.77144
