phi[deg] B[T]
0.00 1.30579
0.50 1.30539
1.00 1.30513
1.50 1.30533
2.00 1.30562
2.50 1.30548
3.00 1.30529
3.50 1.30521
4.00 1.30543
4.50 1.30574
5.00 1.30532
5.50 1.30500
6.00 1.30478
6.50 1.30470
7.00 1.30502
7.50 1.30542
8.00 1.30597
8.50 1.30655
9.00 1.30687
9.50 1.30640
10.00 1.30600
10.50 1.30568
11.00 1.30543
11.50 1.30525
12.00 1.30515
12.50 1.30513
13.00 1.30570
13.50 1.30701
14.00 1.30711
14.50 1.30663
15.00 1.30614
15.50 1.30370
16.00 1.30132
16.50 1.29897
17.00 1.29666
17.50 1.29440
18.00 1.29097
18.50 1.28678
19.00 1.28263
19.50 1.27758
20.00 1.27052
20.50 1.26349
21.00 1.25650
21.50 1.24955
22.00 1.24263
22.50 1.23540
23.00 1.22810
23.50 1.21967
24.00 1.21106
24.50 1.20236
25.00 1.19369
25.50 1.18507
26.00 1.17650
26.50 1.16796
27.00 1.15947
27.50 1.15188
28.00 1.14569
28.50 1.14203
29.00 1.13985
29.50 1.13189
30.00 1.12223
30.50 1.11255
31.00 1.10283
31.50 1.09309
32.00 1.08332
32.50 1.07697
33.00 1.07677
33.50 1.07042
34.00 1.06012
34.50 1.04428
35.00 1.02825
35.50 1.01203
36.00 0.99561
36.50 0.97900
37.00 0.96349
37.50 0.94958
38.00 0.92568
38.50 0.89863
39.00 0.87136
39.50 0.84502
40.00 0.81852
40.50 0.79101
41.00 0.75647
41.50 0.72173
42.00 0.68811
42.50 0.65699
43.00 0.62281
43.50 0.58291
44.00 0.54490
44.50 0.51203
45.00 0.47905
45.50 0.44689
46.00 0.41461
46.50 0.38071
47.00 0.34650
47.50 0.31647
48.00 0.28960
48.50 0.26263
49.00 0.23718
49.50 0.21340
50.00 0.19287
50.50 0.17789
51.00 0.16273
51.50 0.14701
52.00 0.13130
52.50 0.11559
53.00 0.10523
53.50 0.09559
54.00 0.08651
54.50 0.07912
55.00 0.07175
55.50 0.06438
56.00 0.05703
56.50 0.05040
57.00 0.04584
57.50 0.04128
58.00 0.03671
58.50 0.03319
59.00 0.03029
59.50 0.02740
60.00 0.02452
60.50 0.02187
61.00 0.01967
61.50 0.01747
62.00 0.01572
62.50 0.01457
63.00 0.01342
63.50 0.01227
64.00 0.01113
64.50 0.00999
65.00 0.00885
65.50 0.00768
66.00 0.00689
66.50 0.00640
67.00 0.00590
67.50 0.00541
68.00 0.00491
68.50 0.00442
69.00 0.00393
69.50 0.00343
70.00 0.00294
70.50 0.00271
71.00 0.00249
71.50 0.00227
72.00 0.00205
72.50 0.00184
73.00 0.00166
73.50 0.00154
74.00 0.00142
74.50 0.00130
75.00 0.00118
75.50 0.00106
76.00 0.00093
76.50 0.00085
77.00 0.00079
77.50 0.00073
78.00 0.00067
78.50 0.00062
79.00 0.00056
79.50 0.00050
80.00 0.00044
80.50 0.00040
81.00 0.00038
81.50 0.00035
82.00 0.00032
82.50 0.00029
83.00 0.00026
83.50 0.00025
84.00 0.00023
84.50 0.00021
85.00 0.00019
85.50 0.00017
86.00 0.00016
86.50 0.00015
87.00 0.00014
87.50 0.00013
88.00 0.00012
88.50 0.00011
89.00 0.00011
89.50 0.00010
90.00 0.00010
90.00 0.00010
90.50 0.00010
91.00 0.00011
91.50 0.00011
92.00 0.00012
92.50 0.00013
93.00 0.00014
93.50 0.00015
94.00 0.00016
94.50 0.00017
95.00 0.00019
95.50 0.00021
96.00 0.00023
96.50 0.00025
97.00 0.00026
97.50 0.00029
98.00 0.00032
98.50 0.00035
99.00 0.00038
99.50 0.00040
100.00 0.00044
100.50 0.00050
101.00 0.00056
101.50 0.00062
102.00 0.00067
102.50 0.00073
103.00 0.00079
103.50 0.00085
104.00 0.00093
104.50 0.00106
105.00 0.00118
105.50 0.00130
106.00 0.00142
106.50 0.00154
107.00 0.00166
107.50 0.00184
108.00 0.00205
108.50 0.00227
109.00 0.00249
109.50 0.00271
110.00 0.00294
110.50 0.00343
111.00 0.00393
111.50 0.00442
112.00 0.00491
112.50 0.00541
113.00 0.00590
113.50 0.00640
114.00 0.00689
114.50 0.00768
115.00 0.00885
115.50 0.00999
116.00 0.01113
116.50 0.01227
117.00 0.01342
117.50 0.01457
118.00 0.01572
118.50 0.01747
119.00 0.01967
119.50 0.02187
120.00 0.02452
120.50 0.02740
121.00 0.03029
121.50 0.03319
122.00 0.03671
122.50 0.04128
123.00 0.04584
123.50 0.05040
124.00 0.05703
124.50 0.06438
125.00 0.07175
125.50 0.07912
126.00 0.08651
126.50 0.09559
127.00 0.10523
127.50 0.11559
128.00 0.13130
128.50 0.14701
129.00 0.16273
129.50 0.17789
130.00 0.19287
130.50 0.21340
131.00 0.23718
131.50 0.26263
132.00 0.28960
132.50 0.31647
133.00 0.34650
133.50 0.38071
134.00 0.41461
134.50 0.44689
135.00 0.47905
135.50 0.51203
136.00 0.54490
136.50 0.58291
137.00 0.62281
137.50 0.65699
138.00 0.68811
138.50 0.72173
139.00 0.75647
139.50 0.79101
140.00 0.81852
140.50 0.84502
141.00 0.87136
141.50 0.89863
142.00 0.92568
142.50 0.94958
143.00 0.96349
143.50 0.97900
144.00 0.99561
144.50 1.01203
145.00 1.02825
145.50 1.04428
146.00 1.06012
146.50 1.07042
147.00 1.07677
147.50 1.07697
148.00 1.08332
148.50 1.09309
149.00 1.10283
149.50 1.11255
150.00 1.12223
150.50 1.13189
151.00 1.13985
151.50 1.14203
152.00 1.14569
152.50 1.15188
153.00 1.15947
153.50 1.16796
154.00 1.17650
154.50 1.18507
155.00 1.19369
155.50 1.20236
156.00 1.21106
156.50 1.21967
157.00 1.22810
157.50 1.23540
158.00 1.24263
158.50 1.24955
159.00 1.25650
159.50 1.26349
160.00 1.27052
160.50 1.27758
161.00 1.28263
161.50 1.28678
162.00 1.29097
162.50 1.29440
163.00 1.29666
163.50 1.29897
164.00 1.30132
164.50 1.30370
165.00 1.30614
165.50 1.30663
166.00 1.30711
166.50 1.30701
167.00 1.30570
167.50 1.30513
168.00 1.30515
168.50 1.30525
169.00 1.30543
169.50 1.30568
170.00 1.30600
170.50 1.30640
171.00 1.30687
171.50 1.30655
172.00 1.30597
172.50 1.30542
173.00 1.30502
173.50 1.30470
174.00 1.30478
174.50 1.30500
175.00 1.30532
175.50 1.30574
176.00 1.30543
176.50 1.30521
177.00 1.30529
177.50 1.30548
178.00 1.30562
178.50 1.30533
179.00 1.30513
179.50 1.30539
180.00 1.30579
180.00 1.30579
180.50 1.30539
181.00 1.30513
181.50 1.30533
182.00 1.30562
182.50 1.30548
183.00 1.30529
183.50 1.30521
184.00 1.30543
184.50 1.30574
185.00 1.30532
185.50 1.30500
186.00 1.30478
186.50 1.30470
187.00 1.30502
187.50 1.30542
188.00 1.30597
188.50 1.30655
189.00 1.30687
189.50 1.30640
190.00 1.30600
190.50 1.30568
191.00 1.30543
191.50 1.30525
192.00 1.30515
192.50 1.30513
193.00 1.30570
193.50 1.30701
194.00 1.30711
194.50 1.30663
195.00 1.30614
195.50 1.30370
196.00 1.30132
196.50 1.29897
197.00 1.29666
197.50 1.29440
198.00 1.29097
198.50 1.28678
199.00 1.28263
199.50 1.27758
200.00 1.27052
200.50 1.26349
201.00 1.25650
201.50 1.24955
202.00 1.24263
202.50 1.23540
203.00 1.22810
203.50 1.21967
204.00 1.21106
204.50 1.20236
205.00 1.19369
205.50 1.18507
206.00 1.17650
206.50 1.16796
207.00 1.15947
207.50 1.15188
208.00 1.14569
208.50 1.14203
209.00 1.13985
209.50 1.13189
210.00 1.12223
210.50 1.11255
211.00 1.10283
211.50 1.09309
212.00 1.08332
212.50 1.07697
213.00 1.07677
213.50 1.07042
214.00 1.06012
214.50 1.04428
215.00 1.02825
215.50 1.01203
216.00 0.99561
216.50 0.97900
217.00 0.96349
217.50 0.94958
218.00 0.92568
218.50 0.89863
219.00 0.87136
219.50 0.84502
220.00 0.81852
220.50 0.79101
221.00 0.75647
221.50 0.72173
222.00 0.68811
222.50 0.65699
223.00 0.62281
223.50 0.58291
224.00 0.54490
224.50 0.51203
225.00 0.47905
225.50 0.44689
226.00 0.41461
226.50 0.38071
227.00 0.34650
227.50 0.31647
228.00 0.28960
228.50 0.26263
229.00 0.23718
229.50 0.21340
230.00 0.19287
230.50 0.17789
231.00 0.16273
231.50 0.14701
232.00 0.13130
232.50 0.11559
233.00 0.10523
233.50 0.09559
234.00 0.08651
234.50 0.07912
235.00 0.07175
235.50 0.06438
236.00 0.05703
236.50 0.05040
237.00 0.04584
237.50 0.04128
238.00 0.03671
238.50 0.03319
239.00 0.03029
239.50 0.02740
240.00 0.02452
240.50 0.02187
241.00 0.01967
241.50 0.01747
242.00 0.01572
242.50 0.01457
243.00 0.01342
243.50 0.01227
244.00 0.01113
244.50 0.00999
245.00 0.00885
245.50 0.00768
246.00 0.00689
246.50 0.00640
247.00 0.00590
247.50 0.00541
248.00 0.00491
248.50 0.00442
249.00 0.00393
249.50 0.00343
250.00 0.00294
250.50 0.00271
251.00 0.00249
251.50 0.00227
252.00 0.00205
252.50 0.00184
253.00 0.00166
253.50 0.00154
254.00 0.00142
254.50 0.00130
255.00 0.00118
255.50 0.00106
256.00 0.00093
256.50 0.00085
257.00 0.00079
257.50 0.00073
258.00 0.00067
258.50 0.00062
259.00 0.00056
259.50 0.00050
260.00 0.00044
260.50 0.00040
261.00 0.00038
261.50 0.00035
262.00 0.00032
262.50 0.00029
263.00 0.00026
263.50 0.00025
264.00 0.00023
264.50 0.00021
265.00 0.00019
265.50 0.00017
266.00 0.00016
266.50 0.00015
267.00 0.00014
267.50 0.00013
268.00 0.00012
268.50 0.00011
269.00 0.00011
269.50 0.00010
270.00 0.00010
270.00 0.00010
270.50 0.00010
271.00 0.00011
271.50 0.00011
272.00 0.00012
272.50 0.00013
273.00 0.00014
273.50 0.00015
274.00 0.00016
274.50 0.00017
275.00 0.00019
275.50 0.00021
276.00 0.00023
276.50 0.00025
277.00 0.00026
277.50 0.00029
278.00 0.00032
278.50 0.00035
279.00 0.00038
279.50 0.00040
280.00 0.00044
280.50 0.00050
281.00 0.00056
281.50 0.00062
282.00 0.00067
282.50 0.00073
283.00 0.00079
283.50 0.00085
284.00 0.00093
284.50 0.00106
285.00 0.00118
285.50 0.00130
286.00 0.00142
286.50 0.00154
287.00 0.00166
287.50 0.00184
288.00 0.00205
288.50 0.00227
289.00 0.00249
289.50 0.00271
290.00 0.00294
290.50 0.00343
291.00 0.00393
291.50 0.00442
292.00 0.00491
292.50 0.00541
293.00 0.00590
293.50 0.00640
294.00 0.00689
294.50 0.00768
295.00 0.00885
295.50 0.00999
296.00 0.01113
296.50 0.01227
297.00 0.01342
297.50 0.01457
298.00 0.01572
298.50 0.01747
299.00 0.01967
299.50 0.02187
300.00 0.02452
300.50 0.02740
301.00 0.03029
301.50 0.03319
302.00 0.03671
302.50 0.04128
303.00 0.04584
303.50 0.05040
304.00 0.05703
304.50 0.06438
305.00 0.07175
305.50 0.07912
306.00 0.08651
306.50 0.09559
307.00 0.10523
307.50 0.11559
308.00 0.13130
308.50 0.14701
309.00 0.16273
309.50 0.17789
310.00 0.19287
310.50 0.21340
311.00 0.23718
311.50 0.26263
312.00 0.28960
312.50 0.31647
313.00 0.34650
313.50 0.38071
314.00 0.41461
314.50 0.44689
315.00 0.47905
315.50 0.51203
316.00 0.54490
316.50 0.58291
317.00 0.62281
317.50 0.65699
318.00 0.68811
318.50 0.72173
319.00 0.75647
319.50 0.79101
320.00 0.81852
320.50 0.84502
321.00 0.87136
321.50 0.89863
322.00 0.92568
322.50 0.94958
323.00 0.96349
323.50 0.97900
324.00 0.99561
324.50 1.01203
325.00 1.02825
325.50 1.04428
326.00 1.06012
326.50 1.07042
327.00 1.07677
327.50 1.07697
328.00 1.08332
328.50 1.09309
329.00 1.10283
329.50 1.11255
330.00 1.12223
330.50 1.13189
331.00 1.13985
331.50 1.14203
332.00 1.14569
332.50 1.15188
333.00 1.15947
333.50 1.16796
334.00 1.17650
334.50 1.18507
335.00 1.19369
335.50 1.20236
336.00 1.21106
336.50 1.21967
337.00 1.22810
337.50 1.23540
338.00 1.24263
338.50 1.24955
339.00 1.25650
339.50 1.26349
340.00 1.27052
340.50 1.27758
341.00 1.28263
341.50 1.28678
342.00 1.29097
342.50 1.29440
343.00 1.29666
343.50 1.29897
344.00 1.30132
344.50 1.30370
345.00 1.30614
345.50 1.30663
346.00 1.30711
346.50 1.30701
347.00 1.30570
347.50 1.30513
348.00 1.30515
348.50 1.30525
349.00 1.30543
349.50 1.30568
350.00 1.30600
350.50 1.30640
351.00 1.30687
351.50 1.30655
352.00 1.30597
352.50 1.30542
353.00 1.30502
353.50 1.30470
354.00 1.30478
354.50 1.30500
355.00 1.30532
355.50 1.30574
356.00 1.30543
356.50 1.30521
357.00 1.30529
357.50 1.30548
358.00 1.30562
358.50 1.30533
359.00 1.30513
359.50 1.30539
360.00 1.30579
