phi[deg] B[T]
0.00 1.53511
0.50 1.53444
1.00 1.53389
1.50 1.53345
2.00 1.53303
2.50 1.53253
3.00 1.53216
3.50 1.53191
4.00 1.53179
4.50 1.53189
5.00 1.53211
5.50 1.53267
6.00 1.53346
6.50 1.53437
7.00 1.53511
7.50 1.53587
8.00 1.53675
8.50 1.53775
9.00 1.54017
9.50 1.54257
10.00 1.54430
10.50 1.54513
11.00 1.54546
11.50 1.54588
12.00 1.54638
12.50 1.54541
13.00 1.54405
13.50 1.54266
14.00 1.54078
14.50 1.53898
15.00 1.53728
15.50 1.53524
16.00 1.53311
16.50 1.53104
17.00 1.52794
17.50 1.52493
18.00 1.52201
18.50 1.51971
19.00 1.51865
19.50 1.51723
20.00 1.51568
20.50 1.51100
21.00 1.50616
21.50 1.50135
22.00 1.49634
22.50 1.49029
23.00 1.48429
23.50 1.47596
24.00 1.46517
24.50 1.45440
25.00 1.44247
25.50 1.42762
26.00 1.41281
26.50 1.39777
27.00 1.38242
27.50 1.36711
28.00 1.35185
28.50 1.33627
29.00 1.32030
29.50 1.30549
30.00 1.29031
30.50 1.27423
31.00 1.25820
31.50 1.24222
32.00 1.22629
32.50 1.21219
33.00 1.19814
33.50 1.18166
34.00 1.16352
34.50 1.14542
35.00 1.12734
35.50 1.11004
36.00 1.09331
36.50 1.07381
37.00 1.05283
37.50 1.03214
38.00 1.01232
38.50 0.99250
39.00 0.97210
39.50 0.95174
40.00 0.93143
40.50 0.91124
41.00 0.89168
41.50 0.87243
42.00 0.85322
42.50 0.83416
43.00 0.81597
43.50 0.79786
44.00 0.78028
44.50 0.76308
45.00 0.74594
45.50 0.73004
46.00 0.71414
46.50 0.69932
47.00 0.68561
47.50 0.67113
48.00 0.65867
48.50 0.64693
49.00 0.63461
49.50 0.62196
50.00 0.61005
50.50 0.59942
51.00 0.59223
51.50 0.58093
52.00 0.56728
52.50 0.55353
53.00 0.53971
53.50 0.52663
54.00 0.51704
54.50 0.50306
55.00 0.48430
55.50 0.46538
56.00 0.44628
56.50 0.42702
57.00 0.40885
57.50 0.39216
58.00 0.36325
58.50 0.33810
59.00 0.31523
59.50 0.29223
60.00 0.26808
60.50 0.24218
61.00 0.21615
61.50 0.19033
62.00 0.17108
62.50 0.15400
63.00 0.13666
63.50 0.11883
64.00 0.10097
64.50 0.08894
65.00 0.07909
65.50 0.06922
66.00 0.05953
66.50 0.05073
67.00 0.04524
67.50 0.03995
68.00 0.03465
68.50 0.02934
69.00 0.02521
69.50 0.02201
70.00 0.01932
70.50 0.01689
71.00 0.01445
71.50 0.01257
72.00 0.01113
72.50 0.00968
73.00 0.00835
73.50 0.00715
74.00 0.00613
74.50 0.00549
75.00 0.00486
75.50 0.00422
76.00 0.00359
76.50 0.00310
77.00 0.00276
77.50 0.00243
78.00 0.00210
78.50 0.00179
79.00 0.00161
79.50 0.00144
80.00 0.00126
80.50 0.00109
81.00 0.00095
81.50 0.00085
82.00 0.00076
82.50 0.00065
83.00 0.00058
83.50 0.00052
84.00 0.00046
84.50 0.00040
85.00 0.00035
85.50 0.00032
86.00 0.00028
86.50 0.00025
87.00 0.00022
87.50 0.00020
88.00 0.00018
88.50 0.00016
89.00 0.00015
89.50 0.00014
90.00 0.00013
90.00 0.00013
90.50 0.00014
91.00 0.00015
91.50 0.00016
92.00 0.00018
92.50 0.00020
93.00 0.00022
93.50 0.00025
94.00 0.00028
94.50 0.00032
95.00 0.00035
95.50 0.00040
96.00 0.00046
96.50 0.00052
97.00 0.00058
97.50 0.00065
98.00 0.00076
98.50 0.00085
99.00 0.00095
99.50 0.00109
100.00 0.00126
100.50 0.00144
101.00 0.00161
101.50 0.00179
102.00 0.00210
102.50 0.00243
103.00 0.00276
103.50 0.00310
104.00 0.00359
104.50 0.00422
105.00 0.00486
105.50 0.00549
106.00 0.00613
106.50 0.00715
107.00 0.00835
107.50 0.00968
108.00 0.01113
108.50 0.01257
109.00 0.01445
109.50 0.01689
110.00 0.01932
110.50 0.02201
111.00 0.02521
111.50 0.02934
112.00 0.03465
112.50 0.03995
113.00 0.04524
113.50 0.05073
114.00 0.05953
114.50 0.06922
115.00 0.07909
115.50 0.08894
116.00 0.10097
116.50 0.11883
117.00 0.13666
117.50 0.15400
118.00 0.17108
118.50 0.19033
119.00 0.21615
119.50 0.24218
120.00 0.26808
120.50 0.29223
121.00 0.31523
121.50 0.33810
122.00 0.36325
122.50 0.39216
123.00 0.40885
123.50 0.42702
124.00 0.44628
124.50 0.46538
125.00 0.48430
125.50 0.50306
126.00 0.51704
126.50 0.52663
127.00 0.53971
127.50 0.55353
128.00 0.56728
128.50 0.58093
129.00 0.59223
129.50 0.59942
130.00 0.61005
130.50 0.62196
131.00 0.63461
131.50 0.64693
132.00 0.65867
132.50 0.67113
133.00 0.68561
133.50 0.69932
134.00 0.71414
134.50 0.73004
135.00 0.74594
135.50 0.76308
136.00 0.78028
136.50 0.79786
137.00 0.81597
137.50 0.83416
138.00 0.85322
138.50 0.87243
139.00 0.89168
139.50 0.91124
140.00 0.93143
140.50 0.95174
141.00 0.97210
141.50 0.99250
142.00 1.01232
142.50 1.03214
143.00 1.05283
143.50 1.07381
144.00 1.09331
144.50 1.11004
145.00 1.12734
145.50 1.14542
146.00 1.16352
146.50 1.18166
147.00 1.19814
147.50 1.21219
148.00 1.22629
148.50 1.24222
149.00 1.25820
149.50 1.27423
150.00 1.29031
150.50 1.30549
151.00 1.32030
151.50 1.33627
152.00 1.35185
152.50 1.36711
153.00 1.38242
153.50 1.39777
154.00 1.41281
154.50 1.42762
155.00 1.44247
155.50 1.45440
156.00 1.46517
156.50 1.47596
157.00 1.48429
157.50 1.49029
158.00 1.49634
158.50 1.50135
159.00 1.50616
159.50 1.51100
160.00 1.51568
160.50 1.51723
161.00 1.51865
161.50 1.51971
162.00 1.52201
162.50 1.52493
163.00 1.52794
163.50 1.53104
164.00 1.53311
164.50 1.53524
165.00 1.53728
165.50 1.53898
166.00 1.54078
166.50 1.54266
167.00 1.54405
167.50 1.54541
168.00 1.54638
168.50 1.54588
169.00 1.54546
169.50 1.54513
170.00 1.54430
170.50 1.54257
171.00 1.54017
171.50 1.53775
172.00 1.53675
172.50 1.53587
173.00 1.53511
173.50 1.53437
174.00 1.53346
174.50 1.53267
175.00 1.53211
175.50 1.53189
176.00 1.53179
176.50 1.53191
177.00 1.53216
177.50 1.53253
178.00 1.53303
178.50 1.53345
179.00 1.53389
179.50 1.53444
180.00 1.53511
180.00 1.53511
180.50 1.53444
181.00 1.53389
181.50 1.53345
182.00 1.53303
182.50 1.53253
183.00 1.53216
183.50 1.53191
184.00 1.53179
184.50 1.53189
185.00 1.53211
185.50 1.53267
186.00 1.53346
186.50 1.53437
187.00 1.53511
187.50 1.53587
188.00 1.53675
188.50 1.53775
189.00 1.54017
189.50 1.54257
190.00 1.54430
190.50 1.54513
191.00 1.54546
191.50 1.54588
192.00 1.54638
192.50 1.54541
193.00 1.54405
193.50 1.54266
194.00 1.54078
194.50 1.53898
195.00 1.53728
195.50 1.53524
196.00 1.53311
196.50 1.53104
197.00 1.52794
197.50 1.52493
198.00 1.52201
198.50 1.51971
199.00 1.51865
199.50 1.51723
200.00 1.51568
200.50 1.51100
201.00 1.50616
201.50 1.50135
202.00 1.49634
202.50 1.49029
203.00 1.48429
203.50 1.47596
204.00 1.46517
204.50 1.45440
205.00 1.44247
205.50 1.42762
206.00 1.41281
206.50 1.39777
207.00 1.38242
207.50 1.36711
208.00 1.35185
208.50 1.33627
209.00 1.32030
209.50 1.30549
210.00 1.29031
210.50 1.27423
211.00 1.25820
211.50 1.24222
212.00 1.22629
212.50 1.21219
213.00 1.19814
213.50 1.18166
214.00 1.16352
214.50 1.14542
215.00 1.12734
215.50 1.11004
216.00 1.09331
216.50 1.07381
217.00 1.05283
217.50 1.03214
218.00 1.01232
218.50 0.99250
219.00 0.97210
219.50 0.95174
220.00 0.93143
220.50 0.91124
221.00 0.89168
221.50 0.87243
222.00 0.85322
222.50 0.83416
223.00 0.81597
223.50 0.79786
224.00 0.78028
224.50 0.76308
225.00 0.74594
225.50 0.73004
226.00 0.71414
226.50 0.69932
227.00 0.68561
227.50 0.67113
228.00 0.65867
228.50 0.64693
229.00 0.63461
229.50 0.62196
230.00 0.61005
230.50 0.59942
231.00 0.59223
231.50 0.58093
232.00 0.56728
232.50 0.55353
233.00 0.53971
233.50 0.52663
234.00 0.51704
234.50 0.50306
235.00 0.48430
235.50 0.46538
236.00 0.44628
236.50 0.42702
237.00 0.40885
237.50 0.39216
238.00 0.36325
238.50 0.33810
239.00 0.31523
239.50 0.29223
240.00 0.26808
240.50 0.24218
241.00 0.21615
241.50 0.19033
242.00 0.17108
242.50 0.15400
243.00 0.13666
243.50 0.11883
244.00 0.10097
244.50 0.08894
245.00 0.07909
245.50 0.06922
246.00 0.05953
246.50 0.05073
247.00 0.04524
247.50 0.03995
248.00 0.03465
248.50 0.02934
249.00 0.02521
249.50 0.02201
250.00 0.01932
250.50 0.01689
251.00 0.01445
251.50 0.01257
252.00 0.01113
252.50 0.00968
253.00 0.00835
253.50 0.00715
254.00 0.00613
254.50 0.00549
255.00 0.00486
255.50 0.00422
256.00 0.00359
256.50 0.00310
257.00 0.00276
257.50 0.00243
258.00 0.00210
258.50 0.00179
259.00 0.00161
259.50 0.00144
260.00 0.00126
260.50 0.00109
261.00 0.00095
261.50 0.00085
262.00 0.00076
262.50 0.00065
263.00 0.00058
263.50 0.00052
264.00 0.00046
264.50 0.00040
265.00 0.00035
265.50 0.00032
266.00 0.00028
266.50 0.00025
267.00 0.00022
267.50 0.00020
268.00 0.00018
268.50 0.00016
269.00 0.00015
269.50 0.00014
270.00 0.00013
270.00 0.00013
270.50 0.00014
271.00 0.00015
271.50 0.00016
272.00 0.00018
272.50 0.00020
273.00 0.00022
273.50 0.00025
274.00 0.00028
274.50 0.00032
275.00 0.00035
275.50 0.00040
276.00 0.00046
276.50 0.00052
277.00 0.00058
277.50 0.00065
278.00 0.00076
278.50 0.00085
279.00 0.00095
279.50 0.00109
280.00 0.00126
280.50 0.00144
281.00 0.00161
281.50 0.00179
282.00 0.00210
282.50 0.00243
283.00 0.00276
283.50 0.00310
284.00 0.00359
284.50 0.00422
285.00 0.00486
285.50 0.00549
286.00 0.00613
286.50 0.00715
287.00 0.00835
287.50 0.00968
288.00 0.01113
288.50 0.01257
289.00 0.01445
289.50 0.01689
290.00 0.01932
290.50 0.02201
291.00 0.02521
291.50 0.02934
292.00 0.03465
292.50 0.03995
293.00 0.04524
293.50 0.05073
294.00 0.05953
294.50 0.06922
295.00 0.07909
295.50 0.08894
296.00 0.10097
296.50 0.11883
297.00 0.13666
297.50 0.15400
298.00 0.17108
298.50 0.19033
299.00 0.21615
299.50 0.24218
300.00 0.26808
300.50 0.29223
301.00 0.31523
301.50 0.33810
302.00 0.36325
302.50 0.39216
303.00 0.40885
303.50 0.42702
304.00 0.44628
304.50 0.46538
305.00 0.48430
305.50 0.50306
306.00 0.51704
306.50 0.52663
307.00 0.53971
307.50 0.55353
308.00 0.56728
308.50 0.58093
309.00 0.59223
309.50 0.59942
310.00 0.61005
310.50 0.62196
311.00 0.63461
311.50 0.64693
312.00 0.65867
312.50 0.67113
313.00 0.68561
313.50 0.69932
314.00 0.71414
314.50 0.73004
315.00 0.74594
315.50 0.76308
316.00 0.78028
316.50 0.79786
317.00 0.81597
317.50 0.83416
318.00 0.85322
318.50 0.87243
319.00 0.89168
319.50 0.91124
320.00 0.93143
320.50 0.95174
321.00 0.97210
321.50 0.99250
322.00 1.01232
322.50 1.03214
323.00 1.05283
323.50 1.07381
324.00 1.09331
324.50 1.11004
325.00 1.12734
325.50 1.14542
326.00 1.16352
326.50 1.18166
327.00 1.19814
327.50 1.21219
328.00 1.22629
328.50 1.24222
329.00 1.25820
329.50 1.27423
330.00 1.29031
330.50 1.30549
331.00 1.32030
331.50 1.33627
332.00 1.35185
332.50 1.36711
333.00 1.38242
333.50 1.39777
334.00 1.41281
334.50 1.42762
335.00 1.44247
335.50 1.45440
336.00 1.46517
336.50 1.47596
337.00 1.48429
337.50 1.49029
338.00 1.49634
338.50 1.50135
339.00 1.50616
339.50 1.51100
340.00 1.51568
340.50 1.51723
341.00 1.51865
341.50 1.51971
342.00 1.52201
342.50 1.52493
343.00 1.52794
343.50 1.53104
344.00 1.53311
344.50 1.53524
345.00 1.53728
345.50 1.53898
346.00 1.54078
346.50 1.54266
347.00 1.54405
347.50 1.54541
348.00 1.54638
348.50 1.54588
349.00 1.54546
349.50 1.54513
350.00 1.54430
350.50 1.54257
351.00 1.54017
351.50 1.53775
352.00 1.53675
352.50 1.53587
353.00 1.53511
353.50 1.53437
354.00 1.53346
354.50 1.53267
355.00 1.53211
355.50 1.53189
356.00 1.53179
356.50 1.53191
357.00 1.53216
357.50 1.53253
358.00 1.53303
358.50 1.53345
359.00 1.53389
359.50 1.53444
360.00 1.53511
