phi[deg] B[T]
0.00 1.96994
0.50 1.96992
1.00 1.97005
1.50 1.97034
2.00 1.97078
2.50 1.97143
3.00 1.97172
3.50 1.97284
4.00 1.97411
4.50 1.97552
5.00 1.97707
5.50 1.97875
6.00 1.98075
6.50 1.98288
7.00 1.98515
7.50 1.98602
8.00 1.98687
8.50 1.98819
9.00 1.99010
9.50 1.99212
10.00 1.99428
10.50 1.99401
11.00 1.99300
11.50 1.99267
12.00 1.99279
12.50 1.99301
13.00 1.99334
13.50 1.99354
14.00 1.99239
14.50 1.99038
15.00 1.98594
15.50 1.98218
16.00 1.98017
16.50 1.97824
17.00 1.97639
17.50 1.97351
18.00 1.96730
18.50 1.96116
19.00 1.95533
19.50 1.95182
20.00 1.94834
20.50 1.94313
21.00 1.93524
21.50 1.92739
22.00 1.91838
22.50 1.90792
23.00 1.89749
23.50 1.88707
24.00 1.87362
24.50 1.85949
25.00 1.84539
25.50 1.83117
26.00 1.81424
26.50 1.79775
27.00 1.78142
27.50 1.76510
28.00 1.74781
28.50 1.72929
29.00 1.71061
29.50 1.69086
30.00 1.67113
30.50 1.65142
31.00 1.62979
31.50 1.60714
32.00 1.58662
32.50 1.56610
33.00 1.54558
33.50 1.52378
34.00 1.50033
34.50 1.47686
35.00 1.45254
35.50 1.42728
36.00 1.40203
36.50 1.37678
37.00 1.35125
37.50 1.32509
38.00 1.29944
38.50 1.27380
39.00 1.24816
39.50 1.22234
40.00 1.19639
40.50 1.17145
41.00 1.14652
41.50 1.12157
42.00 1.09631
42.50 1.07204
43.00 1.04845
43.50 1.02496
44.00 1.00175
44.50 0.97854
45.00 0.95510
45.50 0.93262
46.00 0.91066
46.50 0.88868
47.00 0.86748
47.50 0.84695
48.00 0.82532
48.50 0.80288
49.00 0.78260
49.50 0.76264
50.00 0.74232
50.50 0.72080
51.00 0.70146
51.50 0.68206
52.00 0.66262
52.50 0.64300
53.00 0.62041
53.50 0.59957
54.00 0.57947
54.50 0.55930
55.00 0.53906
55.50 0.51853
56.00 0.49608
56.50 0.47573
57.00 0.45529
57.50 0.43477
58.00 0.41422
58.50 0.39448
59.00 0.37465
59.50 0.35279
60.00 0.33085
60.50 0.30885
61.00 0.28678
61.50 0.26515
62.00 0.24905
62.50 0.23313
63.00 0.21716
63.50 0.20113
64.00 0.18506
64.50 0.16819
65.00 0.15712
65.50 0.14626
66.00 0.13539
66.50 0.12445
67.00 0.11341
67.50 0.10235
68.00 0.09355
68.50 0.08746
69.00 0.08136
69.50 0.07525
70.00 0.06904
70.50 0.06281
71.00 0.05658
71.50 0.05073
72.00 0.04710
72.50 0.04372
73.00 0.04034
73.50 0.03697
74.00 0.03359
74.50 0.03022
75.00 0.02781
75.50 0.02594
76.00 0.02408
76.50 0.02222
77.00 0.02035
77.50 0.01843
78.00 0.01650
78.50 0.01524
79.00 0.01425
79.50 0.01325
80.00 0.01226
80.50 0.01126
81.00 0.01027
81.50 0.00930
82.00 0.00860
82.50 0.00803
83.00 0.00749
83.50 0.00695
84.00 0.00641
84.50 0.00593
85.00 0.00565
85.50 0.00536
86.00 0.00508
86.50 0.00478
87.00 0.00448
87.50 0.00438
88.00 0.00427
88.50 0.00414
89.00 0.00402
89.50 0.00391
90.00 0.00379
90.00 0.00379
90.50 0.00391
91.00 0.00402
91.50 0.00414
92.00 0.00427
92.50 0.00438
93.00 0.00448
93.50 0.00478
94.00 0.00508
94.50 0.00536
95.00 0.00565
95.50 0.00593
96.00 0.00641
96.50 0.00695
97.00 0.00749
97.50 0.00803
98.00 0.00860
98.50 0.00930
99.00 0.01027
99.50 0.01126
100.00 0.01226
100.50 0.01325
101.00 0.01425
101.50 0.01524
102.00 0.01650
102.50 0.01843
103.00 0.02035
103.50 0.02222
104.00 0.02408
104.50 0.02594
105.00 0.02781
105.50 0.03022
106.00 0.03359
106.50 0.03697
107.00 0.04034
107.50 0.04372
108.00 0.04710
108.50 0.05073
109.00 0.05658
109.50 0.06281
110.00 0.06904
110.50 0.07525
111.00 0.08136
111.50 0.08746
112.00 0.09355
112.50 0.10235
113.00 0.11341
113.50 0.12445
114.00 0.13539
114.50 0.14626
115.00 0.15712
115.50 0.16819
116.00 0.18506
116.50 0.20113
117.00 0.21716
117.50 0.23313
118.00 0.24905
118.50 0.26515
119.00 0.28678
119.50 0.30885
120.00 0.33085
120.50 0.35279
121.00 0.37465
121.50 0.39448
122.00 0.41422
122.50 0.43477
123.00 0.45529
123.50 0.47573
124.00 0.49608
124.50 0.51853
125.00 0.53906
125.50 0.55930
126.00 0.57947
126.50 0.59957
127.00 0.62041
127.50 0.64300
128.00 0.66262
128.50 0.68206
129.00 0.70146
129.50 0.72080
130.00 0.74232
130.50 0.76264
131.00 0.78260
131.50 0.80288
132.00 0.82532
132.50 0.84695
133.00 0.86748
133.50 0.88868
134.00 0.91066
134.50 0.93262
135.00 0.95510
135.50 0.97854
136.00 1.00175
136.50 1.02496
137.00 1.04845
137.50 1.07204
138.00 1.09631
138.50 1.12157
139.00 1.14652
139.50 1.17145
140.00 1.19639
140.50 1.22234
141.00 1.24816
141.50 1.27380
142.00 1.29944
142.50 1.32509
143.00 1.35125
143.50 1.37678
144.00 1.40203
144.50 1.42728
145.00 1.45254
145.50 1.47686
146.00 1.50033
146.50 1.52378
147.00 1.54558
147.50 1.56610
148.00 1.58662
148.50 1.60714
149.00 1.62979
149.50 1.65142
150.00 1.67113
150.50 1.69086
151.00 1.71061
151.50 1.72929
152.00 1.74781
152.50 1.76510
153.00 1.78142
153.50 1.79775
154.00 1.81424
154.50 1.83117
155.00 1.84539
155.50 1.85949
156.00 1.87362
156.50 1.88707
157.00 1.89749
157.50 1.90792
158.00 1.91838
158.50 1.92739
159.00 1.93524
159.50 1.94313
160.00 1.94834
160.50 1.95182
161.00 1.95533
161.50 1.96116
162.00 1.96730
162.50 1.97351
163.00 1.97639
163.50 1.97824
164.00 1.98017
164.50 1.98218
165.00 1.98594
165.50 1.99038
166.00 1.99239
166.50 1.99354
167.00 1.99334
167.50 1.99301
168.00 1.99279
168.50 1.99267
169.00 1.99300
169.50 1.99401
170.00 1.99428
170.50 1.99212
171.00 1.99010
171.50 1.98819
172.00 1.98687
172.50 1.98602
173.00 1.98515
173.50 1.98288
174.00 1.98075
174.50 1.97875
175.00 1.97707
175.50 1.97552
176.00 1.97411
176.50 1.97284
177.00 1.97172
177.50 1.97143
178.00 1.97078
178.50 1.97034
179.00 1.97005
179.50 1.96992
180.00 1.96994
180.00 1.96994
180.50 1.96992
181.00 1.97005
181.50 1.97034
182.00 1.97078
182.50 1.97143
183.00 1.97172
183.50 1.97284
184.00 1.97411
184.50 1.97552
185.00 1.97707
185.50 1.97875
186.00 1.98075
186.50 1.98288
187.00 1.98515
187.50 1.98602
188.00 1.98687
188.50 1.98819
189.00 1.99010
189.50 1.99212
190.00 1.99428
190.50 1.99401
191.00 1.99300
191.50 1.99267
192.00 1.99279
192.50 1.99301
193.00 1.99334
193.50 1.99354
194.00 1.99239
194.50 1.99038
195.00 1.98594
195.50 1.98218
196.00 1.98017
196.50 1.97824
197.00 1.97639
197.50 1.97351
198.00 1.96730
198.50 1.96116
199.00 1.95533
199.50 1.95182
200.00 1.94834
200.50 1.94313
201.00 1.93524
201.50 1.92739
202.00 1.91838
202.50 1.90792
203.00 1.89749
203.50 1.88707
204.00 1.87362
204.50 1.85949
205.00 1.84539
205.50 1.83117
206.00 1.81424
206.50 1.79775
207.00 1.78142
207.50 1.76510
208.00 1.74781
208.50 1.72929
209.00 1.71061
209.50 1.69086
210.00 1.67113
210.50 1.65142
211.00 1.62979
211.50 1.60714
212.00 1.58662
212.50 1.56610
213.00 1.54558
213.50 1.52378
214.00 1.50033
214.50 1.47686
215.00 1.45254
215.50 1.42728
216.00 1.40203
216.50 1.37678
217.00 1.35125
217.50 1.32509
218.00 1.29944
218.50 1.27380
219.00 1.24816
219.50 1.22234
220.00 1.19639
220.50 1.17145
221.00 1.14652
221.50 1.12157
222.00 1.09631
222.50 1.07204
223.00 1.04845
223.50 1.02496
224.00 1.00175
224.50 0.97854
225.00 0.95510
225.50 0.93262
226.00 0.91066
226.50 0.88868
227.00 0.86748
227.50 0.84695
228.00 0.82532
228.50 0.80288
229.00 0.78260
229.50 0.76264
230.00 0.74232
230.50 0.72080
231.00 0.70146
231.50 0.68206
232.00 0.66262
232.50 0.64300
233.00 0.62041
233.50 0.59957
234.00 0.57947
234.50 0.55930
235.00 0.53906
235.50 0.51853
236.00 0.49608
236.50 0.47573
237.00 0.45529
237.50 0.43477
238.00 0.41422
238.50 0.39448
239.00 0.37465
239.50 0.35279
240.00 0.33085
240.50 0.30885
241.00 0.28678
241.50 0.26515
242.00 0.24905
242.50 0.23313
243.00 0.21716
243.50 0.20113
244.00 0.18506
244.50 0.16819
245.00 0.15712
245.50 0.14626
246.00 0.13539
246.50 0.12445
247.00 0.11341
247.50 0.10235
248.00 0.09355
248.50 0.08746
249.00 0.08136
249.50 0.07525
250.00 0.06904
250.50 0.06281
251.00 0.05658
251.50 0.05073
252.00 0.04710
252.50 0.04372
253.00 0.04034
253.50 0.03697
254.00 0.03359
254.50 0.03022
255.00 0.02781
255.50 0.02594
256.00 0.02408
256.50 0.02222
257.00 0.02035
257.50 0.01843
258.00 0.01650
258.50 0.01524
259.00 0.01425
259.50 0.01325
260.00 0.01226
260.50 0.01126
261.00 0.01027
261.50 0.00930
262.00 0.00860
262.50 0.00803
263.00 0.00749
263.50 0.00695
264.00 0.00641
264.50 0.00593
265.00 0.00565
265.50 0.00536
266.00 0.00508
266.50 0.00478
267.00 0.00448
267.50 0.00438
268.00 0.00427
268.50 0.00414
269.00 0.00402
269.50 0.00391
270.00 0.00379
270.00 0.00379
270.50 0.00391
271.00 0.00402
271.50 0.00414
272.00 0.00427
272.50 0.00438
273.00 0.00448
273.50 0.00478
274.00 0.00508
274.50 0.00536
275.00 0.00565
275.50 0.00593
276.00 0.00641
276.50 0.00695
277.00 0.00749
277.50 0.00803
278.00 0.00860
278.50 0.00930
279.00 0.01027
279.50 0.01126
280.00 0.01226
280.50 0.01325
281.00 0.01425
281.50 0.01524
282.00 0.01650
282.50 0.01843
283.00 0.02035
283.50 0.02222
284.00 0.02408
284.50 0.02594
285.00 0.02781
285.50 0.03022
286.00 0.03359
286.50 0.03697
287.00 0.04034
287.50 0.04372
288.00 0.04710
288.50 0.05073
289.00 0.05658
289.50 0.06281
290.00 0.06904
290.50 0.07525
291.00 0.08136
291.50 0.08746
292.00 0.09355
292.50 0.10235
293.00 0.11341
293.50 0.12445
294.00 0.13539
294.50 0.14626
295.00 0.15712
295.50 0.16819
296.00 0.18506
296.50 0.20113
297.00 0.21716
297.50 0.23313
298.00 0.24905
298.50 0.26515
299.00 0.28678
299.50 0.30885
300.00 0.33085
300.50 0.35279
301.00 0.37465
301.50 0.39448
302.00 0.41422
302.50 0.43477
303.00 0.45529
303.50 0.47573
304.00 0.49608
304.50 0.51853
305.00 0.53906
305.50 0.55930
306.00 0.57947
306.50 0.59957
307.00 0.62041
307.50 0.64300
308.00 0.66262
308.50 0.68206
309.00 0.70146
309.50 0.72080
310.00 0.74232
310.50 0.76264
311.00 0.78260
311.50 0.80288
312.00 0.82532
312.50 0.84695
313.00 0.86748
313.50 0.88868
314.00 0.91066
314.50 0.93262
315.00 0.95510
315.50 0.97854
316.00 1.00175
316.50 1.02496
317.00 1.04845
317.50 1.07204
318.00 1.09631
318.50 1.12157
319.00 1.14652
319.50 1.17145
320.00 1.19639
320.50 1.22234
321.00 1.24816
321.50 1.27380
322.00 1.29944
322.50 1.32509
323.00 1.35125
323.50 1.37678
324.00 1.40203
324.50 1.42728
325.00 1.45254
325.50 1.47686
326.00 1.50033
326.50 1.52378
327.00 1.54558
327.50 1.56610
328.00 1.58662
328.50 1.60714
329.00 1.62979
329.50 1.65142
330.00 1.67113
330.50 1.69086
331.00 1.71061
331.50 1.72929
332.00 1.74781
332.50 1.76510
333.00 1.78142
333.50 1.79775
334.00 1.81424
334.50 1.83117
335.00 1.84539
335.50 1.85949
336.00 1.87362
336.50 1.88707
337.00 1.89749
337.50 1.90792
338.00 1.91838
338.50 1.92739
339.00 1.93524
339.50 1.94313
340.00 1.94834
340.50 1.95182
341.00 1.95533
341.50 1.96116
342.00 1.96730
342.50 1.97351
343.00 1.97639
343.50 1.97824
344.00 1.98017
344.50 1.98218
345.00 1.98594
345.50 1.99038
346.00 1.99239
346.50 1.99354
347.00 1.99334
347.50 1.99301
348.00 1.99279
348.50 1.99267
349.00 1.99300
349.50 1.99401
350.00 1.99428
350.50 1.99212
351.00 1.99010
351.50 1.98819
352.00 1.98687
352.50 1.98602
353.00 1.98515
353.50 1.98288
354.00 1.98075
354.50 1.97875
355.00 1.97707
355.50 1.97552
356.00 1.97411
356.50 1.97284
357.00 1.97172
357.50 1.97143
358.00 1.97078
358.50 1.97034
359.00 1.97005
359.50 1.96992
360.00 1.96994
