phi[deg] B[T]
0.00 1.87789
0.50 1.87772
1.00 1.87770
1.50 1.87783
2.00 1.87810
2.50 1.87863
3.00 1.87950
3.50 1.88051
4.00 1.88167
4.50 1.88297
5.00 1.88397
5.50 1.88498
6.00 1.88613
6.50 1.88742
7.00 1.88886
7.50 1.89044
8.00 1.89216
8.50 1.89452
9.00 1.89468
9.50 1.89469
10.00 1.89478
10.50 1.89496
11.00 1.89522
11.50 1.89557
12.00 1.89600
12.50 1.89651
13.00 1.89711
13.50 1.89758
14.00 1.89493
14.50 1.89156
15.00 1.88826
15.50 1.88503
16.00 1.88188
16.50 1.87881
17.00 1.87582
17.50 1.87290
18.00 1.87019
18.50 1.86779
19.00 1.86366
19.50 1.85690
20.00 1.85018
20.50 1.84349
21.00 1.83684
21.50 1.83022
22.00 1.82363
22.50 1.81573
23.00 1.80788
23.50 1.79560
24.00 1.78098
24.50 1.76637
25.00 1.75178
25.50 1.73721
26.00 1.72266
26.50 1.70809
27.00 1.69349
27.50 1.67606
28.00 1.65737
28.50 1.63843
29.00 1.61950
29.50 1.60060
30.00 1.58173
30.50 1.56288
31.00 1.54406
31.50 1.52526
32.00 1.50650
32.50 1.48967
33.00 1.46928
33.50 1.44666
34.00 1.42417
34.50 1.40222
35.00 1.38029
35.50 1.35838
36.00 1.33648
36.50 1.31458
37.00 1.28997
37.50 1.26539
38.00 1.24083
38.50 1.21631
39.00 1.19180
39.50 1.16736
40.00 1.14372
40.50 1.12011
41.00 1.09653
41.50 1.07294
42.00 1.04964
42.50 1.02770
43.00 1.00577
43.50 0.98420
44.00 0.96310
44.50 0.94203
45.00 0.92085
45.50 0.90083
46.00 0.88102
46.50 0.86121
47.00 0.84244
47.50 0.82399
48.00 0.80554
48.50 0.78575
49.00 0.76878
49.50 0.75178
50.00 0.73474
50.50 0.71465
51.00 0.69367
51.50 0.67265
52.00 0.65551
52.50 0.63950
53.00 0.62340
53.50 0.60573
54.00 0.58777
54.50 0.56694
55.00 0.54457
55.50 0.52207
56.00 0.49946
56.50 0.47681
57.00 0.45981
57.50 0.43992
58.00 0.41310
58.50 0.39019
59.00 0.36824
59.50 0.34618
60.00 0.32400
60.50 0.30172
61.00 0.27932
61.50 0.25681
62.00 0.23378
62.50 0.20786
63.00 0.18990
63.50 0.17607
64.00 0.16223
64.50 0.14839
65.00 0.13454
65.50 0.12068
66.00 0.10682
66.50 0.09391
67.00 0.08588
67.50 0.07888
68.00 0.07188
68.50 0.06487
69.00 0.05787
69.50 0.05086
70.00 0.04644
70.50 0.04271
71.00 0.03899
71.50 0.03527
72.00 0.03155
72.50 0.02783
73.00 0.02461
73.50 0.02278
74.00 0.02094
74.50 0.01908
75.00 0.01722
75.50 0.01536
76.00 0.01350
76.50 0.01165
77.00 0.01073
77.50 0.00990
78.00 0.00905
78.50 0.00820
79.00 0.00735
79.50 0.00651
80.00 0.00566
80.50 0.00511
81.00 0.00469
81.50 0.00430
82.00 0.00391
82.50 0.00352
83.00 0.00314
83.50 0.00288
84.00 0.00263
84.50 0.00239
85.00 0.00219
85.50 0.00201
86.00 0.00188
86.50 0.00177
87.00 0.00167
87.50 0.00156
88.00 0.00148
88.50 0.00143
89.00 0.00138
89.50 0.00134
90.00 0.00129
90.00 0.00129
90.50 0.00134
91.00 0.00138
91.50 0.00143
92.00 0.00148
92.50 0.00156
93.00 0.00167
93.50 0.00177
94.00 0.00188
94.50 0.00201
95.00 0.00219
95.50 0.00239
96.00 0.00263
96.50 0.00288
97.00 0.00314
97.50 0.00352
98.00 0.00391
98.50 0.00430
99.00 0.00469
99.50 0.00511
100.00 0.00566
100.50 0.00651
101.00 0.00735
101.50 0.00820
102.00 0.00905
102.50 0.00990
103.00 0.01073
103.50 0.01165
104.00 0.01350
104.50 0.01536
105.00 0.01722
105.50 0.01908
106.00 0.02094
106.50 0.02278
107.00 0.02461
107.50 0.02783
108.00 0.03155
108.50 0.03527
109.00 0.03899
109.50 0.04271
110.00 0.04644
110.50 0.05086
111.00 0.05787
111.50 0.06487
112.00 0.07188
112.50 0.07888
113.00 0.08588
113.50 0.09391
114.00 0.10682
114.50 0.12068
115.00 0.13454
115.50 0.14839
116.00 0.16223
116.50 0.17607
117.00 0.18990
117.50 0.20786
118.00 0.23378
118.50 0.25681
119.00 0.27932
119.50 0.30172
120.00 0.32400
120.50 0.34618
121.00 0.36824
121.50 0.39019
122.00 0.41310
122.50 0.43992
123.00 0.45981
123.50 0.47681
124.00 0.49946
124.50 0.52207
125.00 0.54457
125.50 0.56694
126.00 0.58777
126.50 0.60573
127.00 0.62340
127.50 0.63950
128.00 0.65551
128.50 0.67265
129.00 0.69367
129.50 0.71465
130.00 0.73474
130.50 0.75178
131.00 0.76878
131.50 0.78575
132.00 0.80554
132.50 0.82399
133.00 0.84244
133.50 0.86121
134.00 0.88102
134.50 0.90083
135.00 0.92085
135.50 0.94203
136.00 0.96310
136.50 0.98420
137.00 1.00577
137.50 1.02770
138.00 1.04964
138.50 1.07294
139.00 1.09653
139.50 1.12011
140.00 1.14372
140.50 1.16736
141.00 1.19180
141.50 1.21631
142.00 1.24083
142.50 1.26539
143.00 1.28997
143.50 1.31458
144.00 1.33648
144.50 1.35838
145.00 1.38029
145.50 1.40222
146.00 1.42417
146.50 1.44666
147.00 1.46928
147.50 1.48967
148.00 1.50650
148.50 1.52526
149.00 1.54406
149.50 1.56288
150.00 1.58173
150.50 1.60060
151.00 1.61950
151.50 1.63843
152.00 1.65737
152.50 1.67606
153.00 1.69349
153.50 1.70809
154.00 1.72266
154.50 1.73721
155.00 1.75178
155.50 1.76637
156.00 1.78098
156.50 1.79560
157.00 1.80788
157.50 1.81573
158.00 1.82363
158.50 1.83022
159.00 1.83684
159.50 1.84349
160.00 1.85018
160.50 1.85690
161.00 1.86366
161.50 1.86779
162.00 1.87019
162.50 1.87290
163.00 1.87582
163.50 1.87881
164.00 1.88188
164.50 1.88503
165.00 1.88826
165.50 1.89156
166.00 1.89493
166.50 1.89758
167.00 1.89711
167.50 1.89651
168.00 1.89600
168.50 1.89557
169.00 1.89522
169.50 1.89496
170.00 1.89478
170.50 1.89469
171.00 1.89468
171.50 1.89452
172.00 1.89216
172.50 1.89044
173.00 1.88886
173.50 1.88742
174.00 1.88613
174.50 1.88498
175.00 1.88397
175.50 1.88297
176.00 1.88167
176.50 1.88051
177.00 1.87950
177.50 1.87863
178.00 1.87810
178.50 1.87783
179.00 1.87770
179.50 1.87772
180.00 1.87789
180.00 1.87789
180.50 1.87772
181.00 1.87770
181.50 1.87783
182.00 1.87810
182.50 1.87863
183.00 1.87950
183.50 1.88051
184.00 1.88167
184.50 1.88297
185.00 1.88397
185.50 1.88498
186.00 1.88613
186.50 1.88742
187.00 1.88886
187.50 1.89044
188.00 1.89216
188.50 1.89452
189.00 1.89468
189.50 1.89469
190.00 1.89478
190.50 1.89496
191.00 1.89522
191.50 1.89557
192.00 1.89600
192.50 1.89651
193.00 1.89711
193.50 1.89758
194.00 1.89493
194.50 1.89156
195.00 1.88826
195.50 1.88503
196.00 1.88188
196.50 1.87881
197.00 1.87582
197.50 1.87290
198.00 1.87019
198.50 1.86779
199.00 1.86366
199.50 1.85690
200.00 1.85018
200.50 1.84349
201.00 1.83684
201.50 1.83022
202.00 1.82363
202.50 1.81573
203.00 1.80788
203.50 1.79560
204.00 1.78098
204.50 1.76637
205.00 1.75178
205.50 1.73721
206.00 1.72266
206.50 1.70809
207.00 1.69349
207.50 1.67606
208.00 1.65737
208.50 1.63843
209.00 1.61950
209.50 1.60060
210.00 1.58173
210.50 1.56288
211.00 1.54406
211.50 1.52526
212.00 1.50650
212.50 1.48967
213.00 1.46928
213.50 1.44666
214.00 1.42417
214.50 1.40222
215.00 1.38029
215.50 1.35838
216.00 1.33648
216.50 1.31458
217.00 1.28997
217.50 1.26539
218.00 1.24083
218.50 1.21631
219.00 1.19180
219.50 1.16736
220.00 1.14372
220.50 1.12011
221.00 1.09653
221.50 1.07294
222.00 1.04964
222.50 1.02770
223.00 1.00577
223.50 0.98420
224.00 0.96310
224.50 0.94203
225.00 0.92085
225.50 0.90083
226.00 0.88102
226.50 0.86121
227.00 0.84244
227.50 0.82399
228.00 0.80554
228.50 0.78575
229.00 0.76878
229.50 0.75178
230.00 0.73474
230.50 0.71465
231.00 0.69367
231.50 0.67265
232.00 0.65551
232.50 0.63950
233.00 0.62340
233.50 0.60573
234.00 0.58777
234.50 0.56694
235.00 0.54457
235.50 0.52207
236.00 0.49946
236.50 0.47681
237.00 0.45981
237.50 0.43992
238.00 0.41310
238.50 0.39019
239.00 0.36824
239.50 0.34618
240.00 0.32400
240.50 0.30172
241.00 0.27932
241.50 0.25681
242.00 0.23378
242.50 0.20786
243.00 0.18990
243.50 0.17607
244.00 0.16223
244.50 0.14839
245.00 0.13454
245.50 0.12068
246.00 0.10682
246.50 0.09391
247.00 0.08588
247.50 0.07888
248.00 0.07188
248.50 0.06487
249.00 0.05787
249.50 0.05086
250.00 0.04644
250.50 0.04271
251.00 0.03899
251.50 0.03527
252.00 0.03155
252.50 0.02783
253.00 0.02461
253.50 0.02278
254.00 0.02094
254.50 0.01908
255.00 0.01722
255.50 0.01536
256.00 0.01350
256.50 0.01165
257.00 0.01073
257.50 0.00990
258.00 0.00905
258.50 0.00820
259.00 0.00735
259.50 0.00651
260.00 0.00566
260.50 0.00511
261.00 0.00469
261.50 0.00430
262.00 0.00391
262.50 0.00352
263.00 0.00314
263.50 0.00288
264.00 0.00263
264.50 0.00239
265.00 0.00219
265.50 0.00201
266.00 0.00188
266.50 0.00177
267.00 0.00167
267.50 0.00156
268.00 0.00148
268.50 0.00143
269.00 0.00138
269.50 0.00134
270.00 0.00129
270.00 0.00129
270.50 0.00134
271.00 0.00138
271.50 0.00143
272.00 0.00148
272.50 0.00156
273.00 0.00167
273.50 0.00177
274.00 0.00188
274.50 0.00201
275.00 0.00219
275.50 0.00239
276.00 0.00263
276.50 0.00288
277.00 0.00314
277.50 0.00352
278.00 0.00391
278.50 0.00430
279.00 0.00469
279.50 0.00511
280.00 0.00566
280.50 0.00651
281.00 0.00735
281.50 0.00820
282.00 0.00905
282.50 0.00990
283.00 0.01073
283.50 0.01165
284.00 0.01350
284.50 0.01536
285.00 0.01722
285.50 0.01908
286.00 0.02094
286.50 0.02278
287.00 0.02461
287.50 0.02783
288.00 0.03155
288.50 0.03527
289.00 0.03899
289.50 0.04271
290.00 0.04644
290.50 0.05086
291.00 0.05787
291.50 0.06487
292.00 0.07188
292.50 0.07888
293.00 0.08588
293.50 0.09391
294.00 0.10682
294.50 0.12068
295.00 0.13454
295.50 0.14839
296.00 0.16223
296.50 0.17607
297.00 0.18990
297.50 0.20786
298.00 0.23378
298.50 0.25681
299.00 0.27932
299.50 0.30172
300.00 0.32400
300.50 0.34618
301.00 0.36824
301.50 0.39019
302.00 0.41310
302.50 0.43992
303.00 0.45981
303.50 0.47681
304.00 0.49946
304.50 0.52207
305.00 0.54457
305.50 0.56694
306.00 0.58777
306.50 0.60573
307.00 0.62340
307.50 0.63950
308.00 0.65551
308.50 0.67265
309.00 0.69367
309.50 0.71465
310.00 0.73474
310.50 0.75178
311.00 0.76878
311.50 0.78575
312.00 0.80554
312.50 0.82399
313.00 0.84244
313.50 0.86121
314.00 0.88102
314.50 0.90083
315.00 0.92085
315.50 0.94203
316.00 0.96310
316.50 0.98420
317.00 1.00577
317.50 1.02770
318.00 1.04964
318.50 1.07294
319.00 1.09653
319.50 1.12011
320.00 1.14372
320.50 1.16736
321.00 1.19180
321.50 1.21631
322.00 1.24083
322.50 1.26539
323.00 1.28997
323.50 1.31458
324.00 1.33648
324.50 1.35838
325.00 1.38029
325.50 1.40222
326.00 1.42417
326.50 1.44666
327.00 1.46928
327.50 1.48967
328.00 1.50650
328.50 1.52526
329.00 1.54406
329.50 1.56288
330.00 1.58173
330.50 1.60060
331.00 1.61950
331.50 1.63843
332.00 1.65737
332.50 1.67606
333.00 1.69349
333.50 1.70809
334.00 1.72266
334.50 1.73721
335.00 1.75178
335.50 1.76637
336.00 1.78098
336.50 1.79560
337.00 1.80788
337.50 1.81573
338.00 1.82363
338.50 1.83022
339.00 1.83684
339.50 1.84349
340.00 1.85018
340.50 1.85690
341.00 1.86366
341.50 1.86779
342.00 1.87019
342.50 1.87290
343.00 1.87582
343.50 1.87881
344.00 1.88188
344.50 1.88503
345.00 1.88826
345.50 1.89156
346.00 1.89493
346.50 1.89758
347.00 1.89711
347.50 1.89651
348.00 1.89600
348.50 1.89557
349.00 1.89522
349.50 1.89496
350.00 1.89478
350.50 1.89469
351.00 1.89468
351.50 1.89452
352.00 1.89216
352.50 1.89044
353.00 1.88886
353.50 1.88742
354.00 1.88613
354.50 1.88498
355.00 1.88397
355.50 1.88297
356.00 1.88167
356.50 1.88051
357.00 1.87950
357.50 1.87863
358.00 1.87810
358.50 1.87783
359.00 1.87770
359.50 1.87772
360.00 1.87789
