phi[deg] B[T]
0.00 1.55474
0.50 1.55439
1.00 1.55417
1.50 1.55406
2.00 1.55407
2.50 1.55420
3.00 1.55447
3.50 1.55486
4.00 1.55536
4.50 1.55599
5.00 1.55670
5.50 1.55749
6.00 1.55839
6.50 1.55930
7.00 1.56006
7.50 1.56145
8.00 1.56295
8.50 1.56456
9.00 1.56492
9.50 1.56445
10.00 1.56408
10.50 1.56545
11.00 1.56697
11.50 1.56857
12.00 1.56829
12.50 1.56700
13.00 1.56580
13.50 1.56375
14.00 1.56177
14.50 1.55986
15.00 1.55811
15.50 1.55645
16.00 1.55486
16.50 1.55231
17.00 1.54922
17.50 1.54621
18.00 1.54308
18.50 1.53816
19.00 1.53330
19.50 1.52962
20.00 1.52614
20.50 1.52271
21.00 1.51714
21.50 1.51132
22.00 1.50555
22.50 1.49791
23.00 1.48896
23.50 1.48003
24.00 1.47090
24.50 1.46169
25.00 1.45251
25.50 1.44216
26.00 1.42807
26.50 1.41400
27.00 1.39996
27.50 1.38595
28.00 1.37242
28.50 1.35912
29.00 1.34447
29.50 1.32925
30.00 1.31407
30.50 1.29945
31.00 1.28537
31.50 1.27019
32.00 1.25453
32.50 1.23908
33.00 1.22370
33.50 1.20835
34.00 1.19024
34.50 1.17111
35.00 1.15376
35.50 1.13642
36.00 1.11909
36.50 1.10177
37.00 1.08386
37.50 1.06361
38.00 1.04337
38.50 1.02315
39.00 1.00295
39.50 0.98266
40.00 0.96333
40.50 0.94433
41.00 0.92535
41.50 0.90639
42.00 0.88690
42.50 0.86898
43.00 0.85119
43.50 0.83341
44.00 0.81569
44.50 0.79797
45.00 0.78011
45.50 0.76273
46.00 0.74567
46.50 0.72859
47.00 0.71176
47.50 0.69511
48.00 0.67844
48.50 0.66025
49.00 0.64338
49.50 0.62685
50.00 0.61028
50.50 0.59368
51.00 0.57481
51.50 0.55813
52.00 0.54240
52.50 0.52660
53.00 0.51053
53.50 0.49359
54.00 0.47657
54.50 0.45949
55.00 0.44205
55.50 0.42338
56.00 0.40463
56.50 0.38585
57.00 0.36701
57.50 0.34810
58.00 0.32912
58.50 0.31006
59.00 0.29146
59.50 0.27419
60.00 0.25644
60.50 0.23827
61.00 0.22005
61.50 0.20179
62.00 0.18348
62.50 0.16684
63.00 0.15434
63.50 0.14177
64.00 0.12918
64.50 0.11658
65.00 0.10451
65.50 0.09621
66.00 0.08791
66.50 0.07959
67.00 0.07170
67.50 0.06508
68.00 0.05847
68.50 0.05186
69.00 0.04722
69.50 0.04308
70.00 0.03895
70.50 0.03480
71.00 0.03112
71.50 0.02825
72.00 0.02538
72.50 0.02257
73.00 0.02069
73.50 0.01879
74.00 0.01690
74.50 0.01501
75.00 0.01373
75.50 0.01253
76.00 0.01134
76.50 0.01015
77.00 0.00914
77.50 0.00818
78.00 0.00722
78.50 0.00661
79.00 0.00611
79.50 0.00562
80.00 0.00513
80.50 0.00460
81.00 0.00408
81.50 0.00356
82.00 0.00331
82.50 0.00306
83.00 0.00281
83.50 0.00256
84.00 0.00231
84.50 0.00206
85.00 0.00191
85.50 0.00179
86.00 0.00168
86.50 0.00157
87.00 0.00145
87.50 0.00134
88.00 0.00130
88.50 0.00126
89.00 0.00121
89.50 0.00117
90.00 0.00112
90.00 0.00112
90.50 0.00117
91.00 0.00121
91.50 0.00126
92.00 0.00130
92.50 0.00134
93.00 0.00145
93.50 0.00157
94.00 0.00168
94.50 0.00179
95.00 0.00191
95.50 0.00206
96.00 0.00231
96.50 0.00256
97.00 0.00281
97.50 0.00306
98.00 0.00331
98.50 0.00356
99.00 0.00408
99.50 0.00460
100.00 0.00513
100.50 0.00562
101.00 0.00611
101.50 0.00661
102.00 0.00722
102.50 0.00818
103.00 0.00914
103.50 0.01015
104.00 0.01134
104.50 0.01253
105.00 0.01373
105.50 0.01501
106.00 0.01690
106.50 0.01879
107.00 0.02069
107.50 0.02257
108.00 0.02538
108.50 0.02825
109.00 0.03112
109.50 0.03480
110.00 0.03895
110.50 0.04308
111.00 0.04722
111.50 0.05186
112.00 0.05847
112.50 0.06508
113.00 0.07170
113.50 0.07959
114.00 0.08791
114.50 0.09621
115.00 0.10451
115.50 0.11658
116.00 0.12918
116.50 0.14177
117.00 0.15434
117.50 0.16684
118.00 0.18348
118.50 0.20179
119.00 0.22005
119.50 0.23827
120.00 0.25644
120.50 0.27419
121.00 0.29146
121.50 0.31006
122.00 0.32912
122.50 0.34810
123.00 0.36701
123.50 0.38585
124.00 0.40463
124.50 0.42338
125.00 0.44205
125.50 0.45949
126.00 0.47657
126.50 0.49359
127.00 0.51053
127.50 0.52660
128.00 0.54240
128.50 0.55813
129.00 0.57481
129.50 0.59368
130.00 0.61028
130.50 0.62685
131.00 0.64338
131.50 0.66025
132.00 0.67844
132.50 0.69511
133.00 0.71176
133.50 0.72859
134.00 0.74567
134.50 0.76273
135.00 0.78011
135.50 0.79797
136.00 0.81569
136.50 0.83341
137.00 0.85119
137.50 0.86898
138.00 0.88690
138.50 0.90639
139.00 0.92535
139.50 0.94433
140.00 0.96333
140.50 0.98266
141.00 1.00295
141.50 1.02315
142.00 1.04337
142.50 1.06361
143.00 1.08386
143.50 1.10177
144.00 1.11909
144.50 1.13642
145.00 1.15376
145.50 1.17111
146.00 1.19024
146.50 1.20835
147.00 1.22370
147.50 1.23908
148.00 1.25453
148.50 1.27019
149.00 1.28537
149.50 1.29945
150.00 1.31407
150.50 1.32925
151.00 1.34447
151.50 1.35912
152.00 1.37242
152.50 1.38595
153.00 1.39996
153.50 1.41400
154.00 1.42807
154.50 1.44216
155.00 1.45251
155.50 1.46169
156.00 1.47090
156.50 1.48003
157.00 1.48896
157.50 1.49791
158.00 1.50555
158.50 1.51132
159.00 1.51714
159.50 1.52271
160.00 1.52614
160.50 1.52962
161.00 1.53330
161.50 1.53816
162.00 1.54308
162.50 1.54621
163.00 1.54922
163.50 1.55231
164.00 1.55486
164.50 1.55645
165.00 1.55811
165.50 1.55986
166.00 1.56177
166.50 1.56375
167.00 1.56580
167.50 1.56700
168.00 1.56829
168.50 1.56857
169.00 1.56697
169.50 1.56545
170.00 1.56408
170.50 1.56445
171.00 1.56492
171.50 1.56456
172.00 1.56295
172.50 1.56145
173.00 1.56006
173.50 1.55930
174.00 1.55839
174.50 1.55749
175.00 1.55670
175.50 1.55599
176.00 1.55536
176.50 1.55486
177.00 1.55447
177.50 1.55420
178.00 1.55407
178.50 1.55406
179.00 1.55417
179.50 1.55439
180.00 1.55474
180.00 1.55474
180.50 1.55439
181.00 1.55417
181.50 1.55406
182.00 1.55407
182.50 1.55420
183.00 1.55447
183.50 1.55486
184.00 1.55536
184.50 1.55599
185.00 1.55670
185.50 1.55749
186.00 1.55839
186.50 1.55930
187.00 1.56006
187.50 1.56145
188.00 1.56295
188.50 1.56456
189.00 1.56492
189.50 1.56445
190.00 1.56408
190.50 1.56545
191.00 1.56697
191.50 1.56857
192.00 1.56829
192.50 1.56700
193.00 1.56580
193.50 1.56375
194.00 1.56177
194.50 1.55986
195.00 1.55811
195.50 1.55645
196.00 1.55486
196.50 1.55231
197.00 1.54922
197.50 1.54621
198.00 1.54308
198.50 1.53816
199.00 1.53330
199.50 1.52962
200.00 1.52614
200.50 1.52271
201.00 1.51714
201.50 1.51132
202.00 1.50555
202.50 1.49791
203.00 1.48896
203.50 1.48003
204.00 1.47090
204.50 1.46169
205.00 1.45251
205.50 1.44216
206.00 1.42807
206.50 1.41400
207.00 1.39996
207.50 1.38595
208.00 1.37242
208.50 1.35912
209.00 1.34447
209.50 1.32925
210.00 1.31407
210.50 1.29945
211.00 1.28537
211.50 1.27019
212.00 1.25453
212.50 1.23908
213.00 1.22370
213.50 1.20835
214.00 1.19024
214.50 1.17111
215.00 1.15376
215.50 1.13642
216.00 1.11909
216.50 1.10177
217.00 1.08386
217.50 1.06361
218.00 1.04337
218.50 1.02315
219.00 1.00295
219.50 0.98266
220.00 0.96333
220.50 0.94433
221.00 0.92535
221.50 0.90639
222.00 0.88690
222.50 0.86898
223.00 0.85119
223.50 0.83341
224.00 0.81569
224.50 0.79797
225.00 0.78011
225.50 0.76273
226.00 0.74567
226.50 0.72859
227.00 0.71176
227.50 0.69511
228.00 0.67844
228.50 0.66025
229.00 0.64338
229.50 0.62685
230.00 0.61028
230.50 0.59368
231.00 0.57481
231.50 0.55813
232.00 0.54240
232.50 0.52660
233.00 0.51053
233.50 0.49359
234.00 0.47657
234.50 0.45949
235.00 0.44205
235.50 0.42338
236.00 0.40463
236.50 0.38585
237.00 0.36701
237.50 0.34810
238.00 0.32912
238.50 0.31006
239.00 0.29146
239.50 0.27419
240.00 0.25644
240.50 0.23827
241.00 0.22005
241.50 0.20179
242.00 0.18348
242.50 0.16684
243.00 0.15434
243.50 0.14177
244.00 0.12918
244.50 0.11658
245.00 0.10451
245.50 0.09621
246.00 0.08791
246.50 0.07959
247.00 0.07170
247.50 0.06508
248.00 0.05847
248.50 0.05186
249.00 0.04722
249.50 0.04308
250.00 0.03895
250.50 0.03480
251.00 0.03112
251.50 0.02825
252.00 0.02538
252.50 0.02257
253.00 0.02069
253.50 0.01879
254.00 0.01690
254.50 0.01501
255.00 0.01373
255.50 0.01253
256.00 0.01134
256.50 0.01015
257.00 0.00914
257.50 0.00818
258.00 0.00722
258.50 0.00661
259.00 0.00611
259.50 0.00562
260.00 0.00513
260.50 0.00460
261.00 0.00408
261.50 0.00356
262.00 0.00331
262.50 0.00306
263.00 0.00281
263.50 0.00256
264.00 0.00231
264.50 0.00206
265.00 0.00191
265.50 0.00179
266.00 0.00168
266.50 0.00157
267.00 0.00145
267.50 0.00134
268.00 0.00130
268.50 0.00126
269.00 0.00121
269.50 0.00117
270.00 0.00112
270.00 0.00112
270.50 0.00117
271.00 0.00121
271.50 0.00126
272.00 0.00130
272.50 0.00134
273.00 0.00145
273.50 0.00157
274.00 0.00168
274.50 0.00179
275.00 0.00191
275.50 0.00206
276.00 0.00231
276.50 0.00256
277.00 0.00281
277.50 0.00306
278.00 0.00331
278.50 0.00356
279.00 0.00408
279.50 0.00460
280.00 0.00513
280.50 0.00562
281.00 0.00611
281.50 0.00661
282.00 0.00722
282.50 0.00818
283.00 0.00914
283.50 0.01015
284.00 0.01134
284.50 0.01253
285.00 0.01373
285.50 0.01501
286.00 0.01690
286.50 0.01879
287.00 0.02069
287.50 0.02257
288.00 0.02538
288.50 0.02825
289.00 0.03112
289.50 0.03480
290.00 0.03895
290.50 0.04308
291.00 0.04722
291.50 0.05186
292.00 0.05847
292.50 0.06508
293.00 0.07170
293.50 0.07959
294.00 0.08791
294.50 0.09621
295.00 0.10451
295.50 0.11658
296.00 0.12918
296.50 0.14177
297.00 0.15434
297.50 0.16684
298.00 0.18348
298.50 0.20179
299.00 0.22005
299.50 0.23827
300.00 0.25644
300.50 0.27419
301.00 0.29146
301.50 0.31006
302.00 0.32912
302.50 0.34810
303.00 0.36701
303.50 0.38585
304.00 0.40463
304.50 0.42338
305.00 0.44205
305.50 0.45949
306.00 0.47657
306.50 0.49359
307.00 0.51053
307.50 0.52660
308.00 0.54240
308.50 0.55813
309.00 0.57481
309.50 0.59368
310.00 0.61028
310.50 0.62685
311.00 0.64338
311.50 0.66025
312.00 0.67844
312.50 0.69511
313.00 0.71176
313.50 0.72859
314.00 0.74567
314.50 0.76273
315.00 0.78011
315.50 0.79797
316.00 0.81569
316.50 0.83341
317.00 0.85119
317.50 0.86898
318.00 0.88690
318.50 0.90639
319.00 0.92535
319.50 0.94433
320.00 0.96333
320.50 0.98266
321.00 1.00295
321.50 1.02315
322.00 1.04337
322.50 1.06361
323.00 1.08386
323.50 1.10177
324.00 1.11909
324.50 1.13642
325.00 1.15376
325.50 1.17111
326.00 1.19024
326.50 1.20835
327.00 1.22370
327.50 1.23908
328.00 1.25453
328.50 1.27019
329.00 1.28537
329.50 1.29945
330.00 1.31407
330.50 1.32925
331.00 1.34447
331.50 1.35912
332.00 1.37242
332.50 1.38595
333.00 1.39996
333.50 1.41400
334.00 1.42807
334.50 1.44216
335.00 1.45251
335.50 1.46169
336.00 1.47090
336.50 1.48003
337.00 1.48896
337.50 1.49791
338.00 1.50555
338.50 1.51132
339.00 1.51714
339.50 1.52271
340.00 1.52614
340.50 1.52962
341.00 1.53330
341.50 1.53816
342.00 1.54308
342.50 1.54621
343.00 1.54922
343.50 1.55231
344.00 1.55486
344.50 1.55645
345.00 1.55811
345.50 1.55986
346.00 1.56177
346.50 1.56375
347.00 1.56580
347.50 1.56700
348.00 1.56829
348.50 1.56857
349.00 1.56697
349.50 1.56545
350.00 1.56408
350.50 1.56445
351.00 1.56492
351.50 1.56456
352.00 1.56295
352.50 1.56145
353.00 1.56006
353.50 1.55930
354.00 1.55839
354.50 1.55749
355.00 1.55670
355.50 1.55599
356.00 1.55536
356.50 1.55486
357.00 1.55447
357.50 1.55420
358.00 1.55407
358.50 1.55406
359.00 1.55417
359.50 1.55439
360.00 1.55474
