phi[deg] B[T]
0.00 1.47734
0.50 1.47674
1.00 1.47625
1.50 1.47587
2.00 1.47560
2.50 1.47524
3.00 1.47499
3.50 1.47487
4.00 1.47486
4.50 1.47507
5.00 1.47542
5.50 1.47603
6.00 1.47703
6.50 1.47814
7.00 1.47908
7.50 1.47995
8.00 1.48093
8.50 1.48202
9.00 1.48370
9.50 1.48653
10.00 1.48863
10.50 1.49011
11.00 1.49033
11.50 1.49063
12.00 1.49101
12.50 1.49147
13.00 1.49072
13.50 1.48952
14.00 1.48813
14.50 1.48606
15.00 1.48408
15.50 1.48218
16.00 1.48037
16.50 1.47869
17.00 1.47736
17.50 1.47664
18.00 1.47391
18.50 1.47087
19.00 1.46790
19.50 1.46499
20.00 1.46252
20.50 1.46154
21.00 1.46063
21.50 1.45376
22.00 1.44597
22.50 1.43821
23.00 1.43047
23.50 1.42339
24.00 1.41846
24.50 1.40570
25.00 1.39063
25.50 1.37729
26.00 1.36397
26.50 1.35068
27.00 1.33742
27.50 1.32244
28.00 1.30586
28.50 1.28943
29.00 1.27352
29.50 1.25767
30.00 1.24187
30.50 1.22612
31.00 1.21055
31.50 1.19560
32.00 1.18190
32.50 1.16572
33.00 1.14953
33.50 1.13338
34.00 1.11726
34.50 1.10118
35.00 1.08567
35.50 1.07151
36.00 1.05469
36.50 1.03732
37.00 1.01964
37.50 1.00197
38.00 0.98434
38.50 0.96703
39.00 0.94974
39.50 0.93134
40.00 0.91281
40.50 0.89430
41.00 0.87556
41.50 0.85718
42.00 0.83883
42.50 0.82026
43.00 0.80175
43.50 0.78345
44.00 0.76502
44.50 0.74641
45.00 0.72799
45.50 0.71001
46.00 0.69214
46.50 0.67482
47.00 0.65818
47.50 0.64157
48.00 0.62614
48.50 0.61183
49.00 0.59753
49.50 0.58248
50.00 0.56840
50.50 0.55741
51.00 0.54636
51.50 0.53398
52.00 0.52157
52.50 0.50915
53.00 0.49665
53.50 0.48093
54.00 0.46762
54.50 0.45424
55.00 0.44072
55.50 0.42708
56.00 0.41254
56.50 0.39746
57.00 0.37833
57.50 0.35905
58.00 0.33962
58.50 0.31930
59.00 0.29473
59.50 0.27004
60.00 0.24978
60.50 0.23023
61.00 0.21058
61.50 0.19083
62.00 0.16840
62.50 0.14553
63.00 0.12955
63.50 0.11497
64.00 0.10303
64.50 0.09109
65.00 0.07914
65.50 0.06905
66.00 0.06158
66.50 0.05410
67.00 0.04682
67.50 0.04117
68.00 0.03551
68.50 0.03098
69.00 0.02794
69.50 0.02490
70.00 0.02186
70.50 0.01881
71.00 0.01598
71.50 0.01422
72.00 0.01279
72.50 0.01138
73.00 0.00997
73.50 0.00856
74.00 0.00726
74.50 0.00652
75.00 0.00578
75.50 0.00504
76.00 0.00440
76.50 0.00377
77.00 0.00335
77.50 0.00301
78.00 0.00269
78.50 0.00237
79.00 0.00205
79.50 0.00173
80.00 0.00156
80.50 0.00139
81.00 0.00121
81.50 0.00108
82.00 0.00096
82.50 0.00084
83.00 0.00074
83.50 0.00066
84.00 0.00057
84.50 0.00052
85.00 0.00047
85.50 0.00041
86.00 0.00036
86.50 0.00032
87.00 0.00029
87.50 0.00027
88.00 0.00024
88.50 0.00022
89.00 0.00021
89.50 0.00020
90.00 0.00018
90.00 0.00018
90.50 0.00020
91.00 0.00021
91.50 0.00022
92.00 0.00024
92.50 0.00027
93.00 0.00029
93.50 0.00032
94.00 0.00036
94.50 0.00041
95.00 0.00047
95.50 0.00052
96.00 0.00057
96.50 0.00066
97.00 0.00074
97.50 0.00084
98.00 0.00096
98.50 0.00108
99.00 0.00121
99.50 0.00139
100.00 0.00156
100.50 0.00173
101.00 0.00205
101.50 0.00237
102.00 0.00269
102.50 0.00301
103.00 0.00335
103.50 0.00377
104.00 0.00440
104.50 0.00504
105.00 0.00578
105.50 0.00652
106.00 0.00726
106.50 0.00856
107.00 0.00997
107.50 0.01138
108.00 0.01279
108.50 0.01422
109.00 0.01598
109.50 0.01881
110.00 0.02186
110.50 0.02490
111.00 0.02794
111.50 0.03098
112.00 0.03551
112.50 0.04117
113.00 0.04682
113.50 0.05410
114.00 0.06158
114.50 0.06905
115.00 0.07914
115.50 0.09109
116.00 0.10303
116.50 0.11497
117.00 0.12955
117.50 0.14553
118.00 0.16840
118.50 0.19083
119.00 0.21058
119.50 0.23023
120.00 0.24978
120.50 0.27004
121.00 0.29473
121.50 0.31930
122.00 0.33962
122.50 0.35905
123.00 0.37833
123.50 0.39746
124.00 0.41254
124.50 0.42708
125.00 0.44072
125.50 0.45424
126.00 0.46762
126.50 0.48093
127.00 0.49665
127.50 0.50915
128.00 0.52157
128.50 0.53398
129.00 0.54636
129.50 0.55741
130.00 0.56840
130.50 0.58248
131.00 0.59753
131.50 0.61183
132.00 0.62614
132.50 0.64157
133.00 0.65818
133.50 0.67482
134.00 0.69214
134.50 0.71001
135.00 0.72799
135.50 0.74641
136.00 0.76502
136.50 0.78345
137.00 0.80175
137.50 0.82026
138.00 0.83883
138.50 0.85718
139.00 0.87556
139.50 0.89430
140.00 0.91281
140.50 0.93134
141.00 0.94974
141.50 0.96703
142.00 0.98434
142.50 1.00197
143.00 1.01964
143.50 1.03732
144.00 1.05469
144.50 1.07151
145.00 1.08567
145.50 1.10118
146.00 1.11726
146.50 1.13338
147.00 1.14953
147.50 1.16572
148.00 1.18190
148.50 1.19560
149.00 1.21055
149.50 1.22612
150.00 1.24187
150.50 1.25767
151.00 1.27352
151.50 1.28943
152.00 1.30586
152.50 1.32244
153.00 1.33742
153.50 1.35068
154.00 1.36397
154.50 1.37729
155.00 1.39063
155.50 1.40570
156.00 1.41846
156.50 1.42339
157.00 1.43047
157.50 1.43821
158.00 1.44597
158.50 1.45376
159.00 1.46063
159.50 1.46154
160.00 1.46252
160.50 1.46499
161.00 1.46790
161.50 1.47087
162.00 1.47391
162.50 1.47664
163.00 1.47736
163.50 1.47869
164.00 1.48037
164.50 1.48218
165.00 1.48408
165.50 1.48606
166.00 1.48813
166.50 1.48952
167.00 1.49072
167.50 1.49147
168.00 1.49101
168.50 1.49063
169.00 1.49033
169.50 1.49011
170.00 1.48863
170.50 1.48653
171.00 1.48370
171.50 1.48202
172.00 1.48093
172.50 1.47995
173.00 1.47908
173.50 1.47814
174.00 1.47703
174.50 1.47603
175.00 1.47542
175.50 1.47507
176.00 1.47486
176.50 1.47487
177.00 1.47499
177.50 1.47524
178.00 1.47560
178.50 1.47587
179.00 1.47625
179.50 1.47674
180.00 1.47734
180.00 1.47734
180.50 1.47674
181.00 1.47625
181.50 1.47587
182.00 1.47560
182.50 1.47524
183.00 1.47499
183.50 1.47487
184.00 1.47486
184.50 1.47507
185.00 1.47542
185.50 1.47603
186.00 1.47703
186.50 1.47814
187.00 1.47908
187.50 1.47995
188.00 1.48093
188.50 1.48202
189.00 1.48370
189.50 1.48653
190.00 1.48863
190.50 1.49011
191.00 1.49033
191.50 1.49063
192.00 1.49101
192.50 1.49147
193.00 1.49072
193.50 1.48952
194.00 1.48813
194.50 1.48606
195.00 1.48408
195.50 1.48218
196.00 1.48037
196.50 1.47869
197.00 1.47736
197.50 1.47664
198.00 1.47391
198.50 1.47087
199.00 1.46790
199.50 1.46499
200.00 1.46252
200.50 1.46154
201.00 1.46063
201.50 1.45376
202.00 1.44597
202.50 1.43821
203.00 1.43047
203.50 1.42339
204.00 1.41846
204.50 1.40570
205.00 1.39063
205.50 1.37729
206.00 1.36397
206.50 1.35068
207.00 1.33742
207.50 1.32244
208.00 1.30586
208.50 1.28943
209.00 1.27352
209.50 1.25767
210.00 1.24187
210.50 1.22612
211.00 1.21055
211.50 1.19560
212.00 1.18190
212.50 1.16572
213.00 1.14953
213.50 1.13338
214.00 1.11726
214.50 1.10118
215.00 1.08567
215.50 1.07151
216.00 1.05469
216.50 1.03732
217.00 1.01964
217.50 1.00197
218.00 0.98434
218.50 0.96703
219.00 0.94974
219.50 0.93134
220.00 0.91281
220.50 0.89430
221.00 0.87556
221.50 0.85718
222.00 0.83883
222.50 0.82026
223.00 0.80175
223.50 0.78345
224.00 0.76502
224.50 0.74641
225.00 0.72799
225.50 0.71001
226.00 0.69214
226.50 0.67482
227.00 0.65818
227.50 0.64157
228.00 0.62614
228.50 0.61183
229.00 0.59753
229.50 0.58248
230.00 0.56840
230.50 0.55741
231.00 0.54636
231.50 0.53398
232.00 0.52157
232.50 0.50915
233.00 0.49665
233.50 0.48093
234.00 0.46762
234.50 0.45424
235.00 0.44072
235.50 0.42708
236.00 0.41254
236.50 0.39746
237.00 0.37833
237.50 0.35905
238.00 0.33962
238.50 0.31930
239.00 0.29473
239.50 0.27004
240.00 0.24978
240.50 0.23023
241.00 0.21058
241.50 0.19083
242.00 0.16840
242.50 0.14553
243.00 0.12955
243.50 0.11497
244.00 0.10303
244.50 0.09109
245.00 0.07914
245.50 0.06905
246.00 0.06158
246.50 0.05410
247.00 0.04682
247.50 0.04117
248.00 0.03551
248.50 0.03098
249.00 0.02794
249.50 0.02490
250.00 0.02186
250.50 0.01881
251.00 0.01598
251.50 0.01422
252.00 0.01279
252.50 0.01138
253.00 0.00997
253.50 0.00856
254.00 0.00726
254.50 0.00652
255.00 0.00578
255.50 0.00504
256.00 0.00440
256.50 0.00377
257.00 0.00335
257.50 0.00301
258.00 0.00269
258.50 0.00237
259.00 0.00205
259.50 0.00173
260.00 0.00156
260.50 0.00139
261.00 0.00121
261.50 0.00108
262.00 0.00096
262.50 0.00084
263.00 0.00074
263.50 0.00066
264.00 0.00057
264.50 0.00052
265.00 0.00047
265.50 0.00041
266.00 0.00036
266.50 0.00032
267.00 0.00029
267.50 0.00027
268.00 0.00024
268.50 0.00022
269.00 0.00021
269.50 0.00020
270.00 0.00018
270.00 0.00018
270.50 0.00020
271.00 0.00021
271.50 0.00022
272.00 0.00024
272.50 0.00027
273.00 0.00029
273.50 0.00032
274.00 0.00036
274.50 0.00041
275.00 0.00047
275.50 0.00052
276.00 0.00057
276.50 0.00066
277.00 0.00074
277.50 0.00084
278.00 0.00096
278.50 0.00108
279.00 0.00121
279.50 0.00139
280.00 0.00156
280.50 0.00173
281.00 0.00205
281.50 0.00237
282.00 0.00269
282.50 0.00301
283.00 0.00335
283.50 0.00377
284.00 0.00440
284.50 0.00504
285.00 0.00578
285.50 0.00652
286.00 0.00726
286.50 0.00856
287.00 0.00997
287.50 0.01138
288.00 0.01279
288.50 0.01422
289.00 0.01598
289.50 0.01881
290.00 0.02186
290.50 0.02490
291.00 0.02794
291.50 0.03098
292.00 0.03551
292.50 0.04117
293.00 0.04682
293.50 0.05410
294.00 0.06158
294.50 0.06905
295.00 0.07914
295.50 0.09109
296.00 0.10303
296.50 0.11497
297.00 0.12955
297.50 0.14553
298.00 0.16840
298.50 0.19083
299.00 0.21058
299.50 0.23023
300.00 0.24978
300.50 0.27004
301.00 0.29473
301.50 0.31930
302.00 0.33962
302.50 0.35905
303.00 0.37833
303.50 0.39746
304.00 0.41254
304.50 0.42708
305.00 0.44072
305.50 0.45424
306.00 0.46762
306.50 0.48093
307.00 0.49665
307.50 0.50915
308.00 0.52157
308.50 0.53398
309.00 0.54636
309.50 0.55741
310.00 0.56840
310.50 0.58248
311.00 0.59753
311.50 0.61183
312.00 0.62614
312.50 0.64157
313.00 0.65818
313.50 0.67482
314.00 0.69214
314.50 0.71001
315.00 0.72799
315.50 0.74641
316.00 0.76502
316.50 0.78345
317.00 0.80175
317.50 0.82026
318.00 0.83883
318.50 0.85718
319.00 0.87556
319.50 0.89430
320.00 0.91281
320.50 0.93134
321.00 0.94974
321.50 0.96703
322.00 0.98434
322.50 1.00197
323.00 1.01964
323.50 1.03732
324.00 1.05469
324.50 1.07151
325.00 1.08567
325.50 1.10118
326.00 1.11726
326.50 1.13338
327.00 1.14953
327.50 1.16572
328.00 1.18190
328.50 1.19560
329.00 1.21055
329.50 1.22612
330.00 1.24187
330.50 1.25767
331.00 1.27352
331.50 1.28943
332.00 1.30586
332.50 1.32244
333.00 1.33742
333.50 1.35068
334.00 1.36397
334.50 1.37729
335.00 1.39063
335.50 1.40570
336.00 1.41846
336.50 1.42339
337.00 1.43047
337.50 1.43821
338.00 1.44597
338.50 1.45376
339.00 1.46063
339.50 1.46154
340.00 1.46252
340.50 1.46499
341.00 1.46790
341.50 1.47087
342.00 1.47391
342.50 1.47664
343.00 1.47736
343.50 1.47869
344.00 1.48037
344.50 1.48218
345.00 1.48408
345.50 1.48606
346.00 1.48813
346.50 1.48952
347.00 1.49072
347.50 1.49147
348.00 1.49101
348.50 1.49063
349.00 1.49033
349.50 1.49011
350.00 1.48863
350.50 1.48653
351.00 1.48370
351.50 1.48202
352.00 1.48093
352.50 1.47995
353.00 1.47908
353.50 1.47814
354.00 1.47703
354.50 1.47603
355.00 1.47542
355.50 1.47507
356.00 1.47486
356.50 1.47487
357.00 1.47499
357.50 1.47524
358.00 1.47560
358.50 1.47587
359.00 1.47625
359.50 1.47674
360.00 1.47734
