phi[deg] B[T]
0.00 1.76557
0.50 1.76503
1.00 1.76463
1.50 1.76436
2.00 1.76422
2.50 1.76415
3.00 1.76415
3.50 1.76429
4.00 1.76455
4.50 1.76495
5.00 1.76557
5.50 1.76638
6.00 1.76731
6.50 1.76765
7.00 1.76811
7.50 1.76871
8.00 1.76981
8.50 1.77105
9.00 1.77241
9.50 1.77260
10.00 1.77170
10.50 1.77105
11.00 1.77208
11.50 1.77320
12.00 1.77303
12.50 1.77154
13.00 1.76914
13.50 1.76622
14.00 1.76338
14.50 1.76063
15.00 1.75797
15.50 1.75540
16.00 1.75285
16.50 1.75016
17.00 1.74779
17.50 1.74307
18.00 1.73813
18.50 1.73325
19.00 1.72845
19.50 1.72371
20.00 1.71904
20.50 1.71518
21.00 1.71299
21.50 1.70670
22.00 1.69806
22.50 1.68942
23.00 1.68042
23.50 1.67145
24.00 1.66252
24.50 1.65180
25.00 1.63908
25.50 1.62641
26.00 1.61318
26.50 1.59836
27.00 1.58359
27.50 1.56947
28.00 1.55539
28.50 1.54117
29.00 1.52652
29.50 1.51184
30.00 1.49495
30.50 1.47809
31.00 1.46126
31.50 1.44446
32.00 1.42813
32.50 1.41351
33.00 1.39891
33.50 1.38039
34.00 1.36071
34.50 1.34104
35.00 1.32138
35.50 1.30147
36.00 1.28143
36.50 1.26085
37.00 1.24028
37.50 1.21949
38.00 1.19694
38.50 1.17441
39.00 1.15185
39.50 1.12962
40.00 1.10771
40.50 1.08578
41.00 1.06376
41.50 1.04177
42.00 1.02040
42.50 0.99924
43.00 0.97797
43.50 0.95671
44.00 0.93550
44.50 0.91432
45.00 0.89310
45.50 0.87215
46.00 0.85132
46.50 0.83046
47.00 0.80944
47.50 0.78839
48.00 0.76673
48.50 0.74596
49.00 0.72514
49.50 0.70524
50.00 0.68583
50.50 0.66498
51.00 0.64264
51.50 0.62025
52.00 0.60066
52.50 0.58193
53.00 0.56312
53.50 0.54371
54.00 0.52377
54.50 0.50375
55.00 0.48367
55.50 0.46178
56.00 0.43972
56.50 0.41820
57.00 0.39685
57.50 0.37541
58.00 0.35389
58.50 0.33229
59.00 0.31186
59.50 0.29138
60.00 0.27015
60.50 0.24886
61.00 0.22750
61.50 0.20608
62.00 0.19086
62.50 0.17675
63.00 0.16261
63.50 0.14845
64.00 0.13404
64.50 0.11850
65.00 0.10295
65.50 0.09111
66.00 0.08325
66.50 0.07537
67.00 0.06857
67.50 0.06187
68.00 0.05517
68.50 0.04847
69.00 0.04257
69.50 0.03868
70.00 0.03478
70.50 0.03087
71.00 0.02766
71.50 0.02504
72.00 0.02243
72.50 0.01982
73.00 0.01774
73.50 0.01601
74.00 0.01428
74.50 0.01255
75.00 0.01143
75.50 0.01042
76.00 0.00940
76.50 0.00839
77.00 0.00739
77.50 0.00656
78.00 0.00572
78.50 0.00522
79.00 0.00478
79.50 0.00436
80.00 0.00395
80.50 0.00353
81.00 0.00312
81.50 0.00271
82.00 0.00246
82.50 0.00224
83.00 0.00203
83.50 0.00182
84.00 0.00165
84.50 0.00148
85.00 0.00131
85.50 0.00123
86.00 0.00114
86.50 0.00106
87.00 0.00098
87.50 0.00090
88.00 0.00086
88.50 0.00083
89.00 0.00079
89.50 0.00076
90.00 0.00073
90.00 0.00073
90.50 0.00076
91.00 0.00079
91.50 0.00083
92.00 0.00086
92.50 0.00090
93.00 0.00098
93.50 0.00106
94.00 0.00114
94.50 0.00123
95.00 0.00131
95.50 0.00148
96.00 0.00165
96.50 0.00182
97.00 0.00203
97.50 0.00224
98.00 0.00246
98.50 0.00271
99.00 0.00312
99.50 0.00353
100.00 0.00395
100.50 0.00436
101.00 0.00478
101.50 0.00522
102.00 0.00572
102.50 0.00656
103.00 0.00739
103.50 0.00839
104.00 0.00940
104.50 0.01042
105.00 0.01143
105.50 0.01255
106.00 0.01428
106.50 0.01601
107.00 0.01774
107.50 0.01982
108.00 0.02243
108.50 0.02504
109.00 0.02766
109.50 0.03087
110.00 0.03478
110.50 0.03868
111.00 0.04257
111.50 0.04847
112.00 0.05517
112.50 0.06187
113.00 0.06857
113.50 0.07537
114.00 0.08325
114.50 0.09111
115.00 0.10295
115.50 0.11850
116.00 0.13404
116.50 0.14845
117.00 0.16261
117.50 0.17675
118.00 0.19086
118.50 0.20608
119.00 0.22750
119.50 0.24886
120.00 0.27015
120.50 0.29138
121.00 0.31186
121.50 0.33229
122.00 0.35389
122.50 0.37541
123.00 0.39685
123.50 0.41820
124.00 0.43972
124.50 0.46178
125.00 0.48367
125.50 0.50375
126.00 0.52377
126.50 0.54371
127.00 0.56312
127.50 0.58193
128.00 0.60066
128.50 0.62025
129.00 0.64264
129.50 0.66498
130.00 0.68583
130.50 0.70524
131.00 0.72514
131.50 0.74596
132.00 0.76673
132.50 0.78839
133.00 0.80944
133.50 0.83046
134.00 0.85132
134.50 0.87215
135.00 0.89310
135.50 0.91432
136.00 0.93550
136.50 0.95671
137.00 0.97797
137.50 0.99924
138.00 1.02040
138.50 1.04177
139.00 1.06376
139.50 1.08578
140.00 1.10771
140.50 1.12962
141.00 1.15185
141.50 1.17441
142.00 1.19694
142.50 1.21949
143.00 1.24028
143.50 1.26085
144.00 1.28143
144.50 1.30147
145.00 1.32138
145.50 1.34104
146.00 1.36071
146.50 1.38039
147.00 1.39891
147.50 1.41351
148.00 1.42813
148.50 1.44446
149.00 1.46126
149.50 1.47809
150.00 1.49495
150.50 1.51184
151.00 1.52652
151.50 1.54117
152.00 1.55539
152.50 1.56947
153.00 1.58359
153.50 1.59836
154.00 1.61318
154.50 1.62641
155.00 1.63908
155.50 1.65180
156.00 1.66252
156.50 1.67145
157.00 1.68042
157.50 1.68942
158.00 1.69806
158.50 1.70670
159.00 1.71299
159.50 1.71518
160.00 1.71904
160.50 1.72371
161.00 1.72845
161.50 1.73325
162.00 1.73813
162.50 1.74307
163.00 1.74779
163.50 1.75016
164.00 1.75285
164.50 1.75540
165.00 1.75797
165.50 1.76063
166.00 1.76338
166.50 1.76622
167.00 1.76914
167.50 1.77154
168.00 1.77303
168.50 1.77320
169.00 1.77208
169.50 1.77105
170.00 1.77170
170.50 1.77260
171.00 1.77241
171.50 1.77105
172.00 1.76981
172.50 1.76871
173.00 1.76811
173.50 1.76765
174.00 1.76731
174.50 1.76638
175.00 1.76557
175.50 1.76495
176.00 1.76455
176.50 1.76429
177.00 1.76415
177.50 1.76415
178.00 1.76422
178.50 1.76436
179.00 1.76463
179.50 1.76503
180.00 1.76557
180.00 1.76557
180.50 1.76503
181.00 1.76463
181.50 1.76436
182.00 1.76422
182.50 1.76415
183.00 1.76415
183.50 1.76429
184.00 1.76455
184.50 1.76495
185.00 1.76557
185.50 1.76638
186.00 1.76731
186.50 1.76765
187.00 1.76811
187.50 1.76871
188.00 1.76981
188.50 1.77105
189.00 1.77241
189.50 1.77260
190.00 1.77170
190.50 1.77105
191.00 1.77208
191.50 1.77320
192.00 1.77303
192.50 1.77154
193.00 1.76914
193.50 1.76622
194.00 1.76338
194.50 1.76063
195.00 1.75797
195.50 1.75540
196.00 1.75285
196.50 1.75016
197.00 1.74779
197.50 1.74307
198.00 1.73813
198.50 1.73325
199.00 1.72845
199.50 1.72371
200.00 1.71904
200.50 1.71518
201.00 1.71299
201.50 1.70670
202.00 1.69806
202.50 1.68942
203.00 1.68042
203.50 1.67145
204.00 1.66252
204.50 1.65180
205.00 1.63908
205.50 1.62641
206.00 1.61318
206.50 1.59836
207.00 1.58359
207.50 1.56947
208.00 1.55539
208.50 1.54117
209.00 1.52652
209.50 1.51184
210.00 1.49495
210.50 1.47809
211.00 1.46126
211.50 1.44446
212.00 1.42813
212.50 1.41351
213.00 1.39891
213.50 1.38039
214.00 1.36071
214.50 1.34104
215.00 1.32138
215.50 1.30147
216.00 1.28143
216.50 1.26085
217.00 1.24028
217.50 1.21949
218.00 1.19694
218.50 1.17441
219.00 1.15185
219.50 1.12962
220.00 1.10771
220.50 1.08578
221.00 1.06376
221.50 1.04177
222.00 1.02040
222.50 0.99924
223.00 0.97797
223.50 0.95671
224.00 0.93550
224.50 0.91432
225.00 0.89310
225.50 0.87215
226.00 0.85132
226.50 0.83046
227.00 0.80944
227.50 0.78839
228.00 0.76673
228.50 0.74596
229.00 0.72514
229.50 0.70524
230.00 0.68583
230.50 0.66498
231.00 0.64264
231.50 0.62025
232.00 0.60066
232.50 0.58193
233.00 0.56312
233.50 0.54371
234.00 0.52377
234.50 0.50375
235.00 0.48367
235.50 0.46178
236.00 0.43972
236.50 0.41820
237.00 0.39685
237.50 0.37541
238.00 0.35389
238.50 0.33229
239.00 0.31186
239.50 0.29138
240.00 0.27015
240.50 0.24886
241.00 0.22750
241.50 0.20608
242.00 0.19086
242.50 0.17675
243.00 0.16261
243.50 0.14845
244.00 0.13404
244.50 0.11850
245.00 0.10295
245.50 0.09111
246.00 0.08325
246.50 0.07537
247.00 0.06857
247.50 0.06187
248.00 0.05517
248.50 0.04847
249.00 0.04257
249.50 0.03868
250.00 0.03478
250.50 0.03087
251.00 0.02766
251.50 0.02504
252.00 0.02243
252.50 0.01982
253.00 0.01774
253.50 0.01601
254.00 0.01428
254.50 0.01255
255.00 0.01143
255.50 0.01042
256.00 0.00940
256.50 0.00839
257.00 0.00739
257.50 0.00656
258.00 0.00572
258.50 0.00522
259.00 0.00478
259.50 0.00436
260.00 0.00395
260.50 0.00353
261.00 0.00312
261.50 0.00271
262.00 0.00246
262.50 0.00224
263.00 0.00203
263.50 0.00182
264.00 0.00165
264.50 0.00148
265.00 0.00131
265.50 0.00123
266.00 0.00114
266.50 0.00106
267.00 0.00098
267.50 0.00090
268.00 0.00086
268.50 0.00083
269.00 0.00079
269.50 0.00076
270.00 0.00073
270.00 0.00073
270.50 0.00076
271.00 0.00079
271.50 0.00083
272.00 0.00086
272.50 0.00090
273.00 0.00098
273.50 0.00106
274.00 0.00114
274.50 0.00123
275.00 0.00131
275.50 0.00148
276.00 0.00165
276.50 0.00182
277.00 0.00203
277.50 0.00224
278.00 0.00246
278.50 0.00271
279.00 0.00312
279.50 0.00353
280.00 0.00395
280.50 0.00436
281.00 0.00478
281.50 0.00522
282.00 0.00572
282.50 0.00656
283.00 0.00739
283.50 0.00839
284.00 0.00940
284.50 0.01042
285.00 0.01143
285.50 0.01255
286.00 0.01428
286.50 0.01601
287.00 0.01774
287.50 0.01982
288.00 0.02243
288.50 0.02504
289.00 0.02766
289.50 0.03087
290.00 0.03478
290.50 0.03868
291.00 0.04257
291.50 0.04847
292.00 0.05517
292.50 0.06187
293.00 0.06857
293.50 0.07537
294.00 0.08325
294.50 0.09111
295.00 0.10295
295.50 0.11850
296.00 0.13404
296.50 0.14845
297.00 0.16261
297.50 0.17675
298.00 0.19086
298.50 0.20608
299.00 0.22750
299.50 0.24886
300.00 0.27015
300.50 0.29138
301.00 0.31186
301.50 0.33229
302.00 0.35389
302.50 0.37541
303.00 0.39685
303.50 0.41820
304.00 0.43972
304.50 0.46178
305.00 0.48367
305.50 0.50375
306.00 0.52377
306.50 0.54371
307.00 0.56312
307.50 0.58193
308.00 0.60066
308.50 0.62025
309.00 0.64264
309.50 0.66498
310.00 0.68583
310.50 0.70524
311.00 0.72514
311.50 0.74596
312.00 0.76673
312.50 0.78839
313.00 0.80944
313.50 0.83046
314.00 0.85132
314.50 0.87215
315.00 0.89310
315.50 0.91432
316.00 0.93550
316.50 0.95671
317.00 0.97797
317.50 0.99924
318.00 1.02040
318.50 1.04177
319.00 1.06376
319.50 1.08578
320.00 1.10771
320.50 1.12962
321.00 1.15185
321.50 1.17441
322.00 1.19694
322.50 1.21949
323.00 1.24028
323.50 1.26085
324.00 1.28143
324.50 1.30147
325.00 1.32138
325.50 1.34104
326.00 1.36071
326.50 1.38039
327.00 1.39891
327.50 1.41351
328.00 1.42813
328.50 1.44446
329.00 1.46126
329.50 1.47809
330.00 1.49495
330.50 1.51184
331.00 1.52652
331.50 1.54117
332.00 1.55539
332.50 1.56947
333.00 1.58359
333.50 1.59836
334.00 1.61318
334.50 1.62641
335.00 1.63908
335.50 1.65180
336.00 1.66252
336.50 1.67145
337.00 1.68042
337.50 1.68942
338.00 1.69806
338.50 1.70670
339.00 1.71299
339.50 1.71518
340.00 1.71904
340.50 1.72371
341.00 1.72845
341.50 1.73325
342.00 1.73813
342.50 1.74307
343.00 1.74779
343.50 1.75016
344.00 1.75285
344.50 1.75540
345.00 1.75797
345.50 1.76063
346.00 1.76338
346.50 1.76622
347.00 1.76914
347.50 1.77154
348.00 1.77303
348.50 1.77320
349.00 1.77208
349.50 1.77105
350.00 1.77170
350.50 1.77260
351.00 1.77241
351.50 1.77105
352.00 1.76981
352.50 1.76871
353.00 1.76811
353.50 1.76765
354.00 1.76731
354.50 1.76638
355.00 1.76557
355.50 1.76495
356.00 1.76455
356.50 1.76429
357.00 1.76415
357.50 1.76415
358.00 1.76422
358.50 1.76436
359.00 1.76463
359.50 1.76503
360.00 1.76557
