phi[deg] B[T]
0.00 1.68870
0.50 1.68809
1.00 1.68762
1.50 1.68727
2.00 1.68700
2.50 1.68670
3.00 1.68653
3.50 1.68650
4.00 1.68661
4.50 1.68695
5.00 1.68742
5.50 1.68829
6.00 1.68949
6.50 1.69082
7.00 1.69186
7.50 1.69292
8.00 1.69410
8.50 1.69541
9.00 1.69806
9.50 1.70099
10.00 1.70300
10.50 1.70415
11.00 1.70466
11.50 1.70527
12.00 1.70598
12.50 1.70508
13.00 1.70357
13.50 1.70207
14.00 1.70003
14.50 1.69810
15.00 1.69626
15.50 1.69388
16.00 1.69148
16.50 1.68900
17.00 1.68553
17.50 1.68216
18.00 1.67888
18.50 1.67618
19.00 1.67486
19.50 1.67330
20.00 1.67150
20.50 1.66609
21.00 1.66073
21.50 1.65541
22.00 1.65001
22.50 1.64341
23.00 1.63686
23.50 1.62742
24.00 1.61537
24.50 1.60335
25.00 1.59134
25.50 1.57469
26.00 1.55800
26.50 1.54117
27.00 1.52395
27.50 1.50677
28.00 1.48965
28.50 1.47212
29.00 1.45414
29.50 1.43710
30.00 1.41978
30.50 1.40177
31.00 1.38381
31.50 1.36591
32.00 1.34829
32.50 1.33238
33.00 1.31653
33.50 1.29788
34.00 1.27813
34.50 1.25841
35.00 1.23874
35.50 1.21994
36.00 1.20272
36.50 1.18256
37.00 1.16100
37.50 1.13959
38.00 1.11819
38.50 1.09683
39.00 1.07527
39.50 1.05369
40.00 1.03163
40.50 1.00961
41.00 0.98759
41.50 0.96585
42.00 0.94424
42.50 0.92263
43.00 0.90113
43.50 0.87999
44.00 0.85898
44.50 0.83813
45.00 0.81734
45.50 0.79764
46.00 0.77800
46.50 0.75954
47.00 0.74188
47.50 0.72445
48.00 0.70888
48.50 0.69321
49.00 0.67906
49.50 0.66480
50.00 0.65054
50.50 0.64143
51.00 0.63322
51.50 0.61894
52.00 0.60237
52.50 0.58574
53.00 0.56927
53.50 0.56016
54.00 0.55093
54.50 0.53727
55.00 0.52150
55.50 0.50530
56.00 0.48373
56.50 0.46200
57.00 0.44010
57.50 0.41436
58.00 0.38836
58.50 0.36221
59.00 0.33666
59.50 0.31164
60.00 0.28538
60.50 0.25863
61.00 0.23177
61.50 0.20479
62.00 0.18185
62.50 0.16384
63.00 0.14539
63.50 0.12691
64.00 0.10841
64.50 0.09476
65.00 0.08437
65.50 0.07396
66.00 0.06368
66.50 0.05379
67.00 0.04801
67.50 0.04249
68.00 0.03696
68.50 0.03143
69.00 0.02697
69.50 0.02391
70.00 0.02085
70.50 0.01800
71.00 0.01527
71.50 0.01336
72.00 0.01192
72.50 0.01050
73.00 0.00911
73.50 0.00772
74.00 0.00659
74.50 0.00587
75.00 0.00516
75.50 0.00445
76.00 0.00390
76.50 0.00335
77.00 0.00291
77.50 0.00260
78.00 0.00229
78.50 0.00197
79.00 0.00172
79.50 0.00148
80.00 0.00132
80.50 0.00119
81.00 0.00105
81.50 0.00092
82.00 0.00079
82.50 0.00071
83.00 0.00064
83.50 0.00057
84.00 0.00050
84.50 0.00044
85.00 0.00039
85.50 0.00035
86.00 0.00031
86.50 0.00028
87.00 0.00025
87.50 0.00023
88.00 0.00020
88.50 0.00019
89.00 0.00018
89.50 0.00017
90.00 0.00016
90.00 0.00016
90.50 0.00017
91.00 0.00018
91.50 0.00019
92.00 0.00020
92.50 0.00023
93.00 0.00025
93.50 0.00028
94.00 0.00031
94.50 0.00035
95.00 0.00039
95.50 0.00044
96.00 0.00050
96.50 0.00057
97.00 0.00064
97.50 0.00071
98.00 0.00079
98.50 0.00092
99.00 0.00105
99.50 0.00119
100.00 0.00132
100.50 0.00148
101.00 0.00172
101.50 0.00197
102.00 0.00229
102.50 0.00260
103.00 0.00291
103.50 0.00335
104.00 0.00390
104.50 0.00445
105.00 0.00516
105.50 0.00587
106.00 0.00659
106.50 0.00772
107.00 0.00911
107.50 0.01050
108.00 0.01192
108.50 0.01336
109.00 0.01527
109.50 0.01800
110.00 0.02085
110.50 0.02391
111.00 0.02697
111.50 0.03143
112.00 0.03696
112.50 0.04249
113.00 0.04801
113.50 0.05379
114.00 0.06368
114.50 0.07396
115.00 0.08437
115.50 0.09476
116.00 0.10841
116.50 0.12691
117.00 0.14539
117.50 0.16384
118.00 0.18185
118.50 0.20479
119.00 0.23177
119.50 0.25863
120.00 0.28538
120.50 0.31164
121.00 0.33666
121.50 0.36221
122.00 0.38836
122.50 0.41436
123.00 0.44010
123.50 0.46200
124.00 0.48373
124.50 0.50530
125.00 0.52150
125.50 0.53727
126.00 0.55093
126.50 0.56016
127.00 0.56927
127.50 0.58574
128.00 0.60237
128.50 0.61894
129.00 0.63322
129.50 0.64143
130.00 0.65054
130.50 0.66480
131.00 0.67906
131.50 0.69321
132.00 0.70888
132.50 0.72445
133.00 0.74188
133.50 0.75954
134.00 0.77800
134.50 0.79764
135.00 0.81734
135.50 0.83813
136.00 0.85898
136.50 0.87999
137.00 0.90113
137.50 0.92263
138.00 0.94424
138.50 0.96585
139.00 0.98759
139.50 1.00961
140.00 1.03163
140.50 1.05369
141.00 1.07527
141.50 1.09683
142.00 1.11819
142.50 1.13959
143.00 1.16100
143.50 1.18256
144.00 1.20272
144.50 1.21994
145.00 1.23874
145.50 1.25841
146.00 1.27813
146.50 1.29788
147.00 1.31653
147.50 1.33238
148.00 1.34829
148.50 1.36591
149.00 1.38381
149.50 1.40177
150.00 1.41978
150.50 1.43710
151.00 1.45414
151.50 1.47212
152.00 1.48965
152.50 1.50677
153.00 1.52395
153.50 1.54117
154.00 1.55800
154.50 1.57469
155.00 1.59134
155.50 1.60335
156.00 1.61537
156.50 1.62742
157.00 1.63686
157.50 1.64341
158.00 1.65001
158.50 1.65541
159.00 1.66073
159.50 1.66609
160.00 1.67150
160.50 1.67330
161.00 1.67486
161.50 1.67618
162.00 1.67888
162.50 1.68216
163.00 1.68553
163.50 1.68900
164.00 1.69148
164.50 1.69388
165.00 1.69626
165.50 1.69810
166.00 1.70003
166.50 1.70207
167.00 1.70357
167.50 1.70508
168.00 1.70598
168.50 1.70527
169.00 1.70466
169.50 1.70415
170.00 1.70300
170.50 1.70099
171.00 1.69806
171.50 1.69541
172.00 1.69410
172.50 1.69292
173.00 1.69186
173.50 1.69082
174.00 1.68949
174.50 1.68829
175.00 1.68742
175.50 1.68695
176.00 1.68661
176.50 1.68650
177.00 1.68653
177.50 1.68670
178.00 1.68700
178.50 1.68727
179.00 1.68762
179.50 1.68809
180.00 1.68870
180.00 1.68870
180.50 1.68809
181.00 1.68762
181.50 1.68727
182.00 1.68700
182.50 1.68670
183.00 1.68653
183.50 1.68650
184.00 1.68661
184.50 1.68695
185.00 1.68742
185.50 1.68829
186.00 1.68949
186.50 1.69082
187.00 1.69186
187.50 1.69292
188.00 1.69410
188.50 1.69541
189.00 1.69806
189.50 1.70099
190.00 1.70300
190.50 1.70415
191.00 1.70466
191.50 1.70527
192.00 1.70598
192.50 1.70508
193.00 1.70357
193.50 1.70207
194.00 1.70003
194.50 1.69810
195.00 1.69626
195.50 1.69388
196.00 1.69148
196.50 1.68900
197.00 1.68553
197.50 1.68216
198.00 1.67888
198.50 1.67618
199.00 1.67486
199.50 1.67330
200.00 1.67150
200.50 1.66609
201.00 1.66073
201.50 1.65541
202.00 1.65001
202.50 1.64341
203.00 1.63686
203.50 1.62742
204.00 1.61537
204.50 1.60335
205.00 1.59134
205.50 1.57469
206.00 1.55800
206.50 1.54117
207.00 1.52395
207.50 1.50677
208.00 1.48965
208.50 1.47212
209.00 1.45414
209.50 1.43710
210.00 1.41978
210.50 1.40177
211.00 1.38381
211.50 1.36591
212.00 1.34829
212.50 1.33238
213.00 1.31653
213.50 1.29788
214.00 1.27813
214.50 1.25841
215.00 1.23874
215.50 1.21994
216.00 1.20272
216.50 1.18256
217.00 1.16100
217.50 1.13959
218.00 1.11819
218.50 1.09683
219.00 1.07527
219.50 1.05369
220.00 1.03163
220.50 1.00961
221.00 0.98759
221.50 0.96585
222.00 0.94424
222.50 0.92263
223.00 0.90113
223.50 0.87999
224.00 0.85898
224.50 0.83813
225.00 0.81734
225.50 0.79764
226.00 0.77800
226.50 0.75954
227.00 0.74188
227.50 0.72445
228.00 0.70888
228.50 0.69321
229.00 0.67906
229.50 0.66480
230.00 0.65054
230.50 0.64143
231.00 0.63322
231.50 0.61894
232.00 0.60237
232.50 0.58574
233.00 0.56927
233.50 0.56016
234.00 0.55093
234.50 0.53727
235.00 0.52150
235.50 0.50530
236.00 0.48373
236.50 0.46200
237.00 0.44010
237.50 0.41436
238.00 0.38836
238.50 0.36221
239.00 0.33666
239.50 0.31164
240.00 0.28538
240.50 0.25863
241.00 0.23177
241.50 0.20479
242.00 0.18185
242.50 0.16384
243.00 0.14539
243.50 0.12691
244.00 0.10841
244.50 0.09476
245.00 0.08437
245.50 0.07396
246.00 0.06368
246.50 0.05379
247.00 0.04801
247.50 0.04249
248.00 0.03696
248.50 0.03143
249.00 0.02697
249.50 0.02391
250.00 0.02085
250.50 0.01800
251.00 0.01527
251.50 0.01336
252.00 0.01192
252.50 0.01050
253.00 0.00911
253.50 0.00772
254.00 0.00659
254.50 0.00587
255.00 0.00516
255.50 0.00445
256.00 0.00390
256.50 0.00335
257.00 0.00291
257.50 0.00260
258.00 0.00229
258.50 0.00197
259.00 0.00172
259.50 0.00148
260.00 0.00132
260.50 0.00119
261.00 0.00105
261.50 0.00092
262.00 0.00079
262.50 0.00071
263.00 0.00064
263.50 0.00057
264.00 0.00050
264.50 0.00044
265.00 0.00039
265.50 0.00035
266.00 0.00031
266.50 0.00028
267.00 0.00025
267.50 0.00023
268.00 0.00020
268.50 0.00019
269.00 0.00018
269.50 0.00017
270.00 0.00016
270.00 0.00016
270.50 0.00017
271.00 0.00018
271.50 0.00019
272.00 0.00020
272.50 0.00023
273.00 0.00025
273.50 0.00028
274.00 0.00031
274.50 0.00035
275.00 0.00039
275.50 0.00044
276.00 0.00050
276.50 0.00057
277.00 0.00064
277.50 0.00071
278.00 0.00079
278.50 0.00092
279.00 0.00105
279.50 0.00119
280.00 0.00132
280.50 0.00148
281.00 0.00172
281.50 0.00197
282.00 0.00229
282.50 0.00260
283.00 0.00291
283.50 0.00335
284.00 0.00390
284.50 0.00445
285.00 0.00516
285.50 0.00587
286.00 0.00659
286.50 0.00772
287.00 0.00911
287.50 0.01050
288.00 0.01192
288.50 0.01336
289.00 0.01527
289.50 0.01800
290.00 0.02085
290.50 0.02391
291.00 0.02697
291.50 0.03143
292.00 0.03696
292.50 0.04249
293.00 0.04801
293.50 0.05379
294.00 0.06368
294.50 0.07396
295.00 0.08437
295.50 0.09476
296.00 0.10841
296.50 0.12691
297.00 0.14539
297.50 0.16384
298.00 0.18185
298.50 0.20479
299.00 0.23177
299.50 0.25863
300.00 0.28538
300.50 0.31164
301.00 0.33666
301.50 0.36221
302.00 0.38836
302.50 0.41436
303.00 0.44010
303.50 0.46200
304.00 0.48373
304.50 0.50530
305.00 0.52150
305.50 0.53727
306.00 0.55093
306.50 0.56016
307.00 0.56927
307.50 0.58574
308.00 0.60237
308.50 0.61894
309.00 0.63322
309.50 0.64143
310.00 0.65054
310.50 0.66480
311.00 0.67906
311.50 0.69321
312.00 0.70888
312.50 0.72445
313.00 0.74188
313.50 0.75954
314.00 0.77800
314.50 0.79764
315.00 0.81734
315.50 0.83813
316.00 0.85898
316.50 0.87999
317.00 0.90113
317.50 0.92263
318.00 0.94424
318.50 0.96585
319.00 0.98759
319.50 1.00961
320.00 1.03163
320.50 1.05369
321.00 1.07527
321.50 1.09683
322.00 1.11819
322.50 1.13959
323.00 1.16100
323.50 1.18256
324.00 1.20272
324.50 1.21994
325.00 1.23874
325.50 1.25841
326.00 1.27813
326.50 1.29788
327.00 1.31653
327.50 1.33238
328.00 1.34829
328.50 1.36591
329.00 1.38381
329.50 1.40177
330.00 1.41978
330.50 1.43710
331.00 1.45414
331.50 1.47212
332.00 1.48965
332.50 1.50677
333.00 1.52395
333.50 1.54117
334.00 1.55800
334.50 1.57469
335.00 1.59134
335.50 1.60335
336.00 1.61537
336.50 1.62742
337.00 1.63686
337.50 1.64341
338.00 1.65001
338.50 1.65541
339.00 1.66073
339.50 1.66609
340.00 1.67150
340.50 1.67330
341.00 1.67486
341.50 1.67618
342.00 1.67888
342.50 1.68216
343.00 1.68553
343.50 1.68900
344.00 1.69148
344.50 1.69388
345.00 1.69626
345.50 1.69810
346.00 1.70003
346.50 1.70207
347.00 1.70357
347.50 1.70508
348.00 1.70598
348.50 1.70527
349.00 1.70466
349.50 1.70415
350.00 1.70300
350.50 1.70099
351.00 1.69806
351.50 1.69541
352.00 1.69410
352.50 1.69292
353.00 1.69186
353.50 1.69082
354.00 1.68949
354.50 1.68829
355.00 1.68742
355.50 1.68695
356.00 1.68661
356.50 1.68650
357.00 1.68653
357.50 1.68670
358.00 1.68700
358.50 1.68727
359.00 1.68762
359.50 1.68809
360.00 1.68870
