phi[deg] B[T]
0.00 1.69926
0.50 1.69848
1.00 1.69783
1.50 1.69730
2.00 1.69656
2.50 1.69602
3.00 1.69562
3.50 1.69499
4.00 1.69424
4.50 1.69423
5.00 1.69442
5.50 1.69497
6.00 1.69592
6.50 1.69701
7.00 1.69787
7.50 1.69882
8.00 1.70047
8.50 1.70298
9.00 1.70561
9.50 1.70729
10.00 1.70792
10.50 1.70868
11.00 1.71007
11.50 1.71157
12.00 1.71283
12.50 1.71127
13.00 1.70981
13.50 1.70837
14.00 1.70641
14.50 1.70436
15.00 1.70164
15.50 1.69903
16.00 1.69654
16.50 1.69416
17.00 1.69188
17.50 1.68968
18.00 1.68760
18.50 1.68562
19.00 1.68324
19.50 1.67906
20.00 1.67365
20.50 1.67101
21.00 1.66843
21.50 1.66589
22.00 1.65990
22.50 1.64982
23.00 1.63978
23.50 1.63085
24.00 1.62356
24.50 1.60746
25.00 1.58974
25.50 1.57413
26.00 1.55857
26.50 1.54305
27.00 1.52526
27.50 1.50630
28.00 1.48747
28.50 1.46954
29.00 1.45169
29.50 1.43430
30.00 1.41713
30.50 1.40004
31.00 1.38281
31.50 1.36496
32.00 1.34542
32.50 1.32829
33.00 1.31160
33.50 1.29494
34.00 1.27611
34.50 1.25556
35.00 1.23536
35.50 1.21568
36.00 1.19460
36.50 1.17167
37.00 1.14876
37.50 1.12517
38.00 1.10255
38.50 1.08003
39.00 1.05757
39.50 1.03466
40.00 1.01310
40.50 0.99184
41.00 0.97063
41.50 0.94968
42.00 0.93001
42.50 0.91045
43.00 0.89131
43.50 0.87314
44.00 0.85479
44.50 0.83718
45.00 0.82002
45.50 0.80375
46.00 0.78716
46.50 0.77151
47.00 0.75610
47.50 0.74146
48.00 0.72632
48.50 0.71303
49.00 0.69924
49.50 0.68385
50.00 0.66909
50.50 0.65740
51.00 0.64555
51.50 0.62966
52.00 0.61257
52.50 0.59542
53.00 0.58050
53.50 0.56733
54.00 0.55222
54.50 0.53189
55.00 0.51141
55.50 0.49077
56.00 0.47006
56.50 0.44962
57.00 0.42904
57.50 0.40454
58.00 0.37860
58.50 0.35248
59.00 0.32289
59.50 0.29142
60.00 0.26057
60.50 0.23815
61.00 0.21563
61.50 0.19302
62.00 0.16624
62.50 0.13909
63.00 0.12177
63.50 0.10458
64.00 0.09137
64.50 0.07823
65.00 0.06707
65.50 0.05882
66.00 0.05056
66.50 0.04227
67.00 0.03553
67.50 0.03153
68.00 0.02752
68.50 0.02345
69.00 0.01938
69.50 0.01707
70.00 0.01496
70.50 0.01280
71.00 0.01063
71.50 0.00917
72.00 0.00803
72.50 0.00689
73.00 0.00575
73.50 0.00496
74.00 0.00434
74.50 0.00377
75.00 0.00320
75.50 0.00270
76.00 0.00238
76.50 0.00206
77.00 0.00179
77.50 0.00156
78.00 0.00132
78.50 0.00118
79.00 0.00104
79.50 0.00090
80.00 0.00080
80.50 0.00070
81.00 0.00063
81.50 0.00057
82.00 0.00051
82.50 0.00045
83.00 0.00041
83.50 0.00037
84.00 0.00034
84.50 0.00030
85.00 0.00026
85.50 0.00024
86.00 0.00021
86.50 0.00018
87.00 0.00016
87.50 0.00013
88.00 0.00011
88.50 0.00009
89.00 0.00008
89.50 0.00006
90.00 0.00005
90.00 0.00005
90.50 0.00006
91.00 0.00008
91.50 0.00009
92.00 0.00011
92.50 0.00013
93.00 0.00016
93.50 0.00018
94.00 0.00021
94.50 0.00024
95.00 0.00026
95.50 0.00030
96.00 0.00034
96.50 0.00037
97.00 0.00041
97.50 0.00045
98.00 0.00051
98.50 0.00057
99.00 0.00063
99.50 0.00070
100.00 0.00080
100.50 0.00090
101.00 0.00104
101.50 0.00118
102.00 0.00132
102.50 0.00156
103.00 0.00179
103.50 0.00206
104.00 0.00238
104.50 0.00270
105.00 0.00320
105.50 0.00377
106.00 0.00434
106.50 0.00496
107.00 0.00575
107.50 0.00689
108.00 0.00803
108.50 0.00917
109.00 0.01063
109.50 0.01280
110.00 0.01496
110.50 0.01707
111.00 0.01938
111.50 0.02345
112.00 0.02752
112.50 0.03153
113.00 0.03553
113.50 0.04227
114.00 0.05056
114.50 0.05882
115.00 0.06707
115.50 0.07823
116.00 0.09137
116.50 0.10458
117.00 0.12177
117.50 0.13909
118.00 0.16624
118.50 0.19302
119.00 0.21563
119.50 0.23815
120.00 0.26057
120.50 0.29142
121.00 0.32289
121.50 0.35248
122.00 0.37860
122.50 0.40454
123.00 0.42904
123.50 0.44962
124.00 0.47006
124.50 0.49077
125.00 0.51141
125.50 0.53189
126.00 0.55222
126.50 0.56733
127.00 0.58050
127.50 0.59542
128.00 0.61257
128.50 0.62966
129.00 0.64555
129.50 0.65740
130.00 0.66909
130.50 0.68385
131.00 0.69924
131.50 0.71303
132.00 0.72632
132.50 0.74146
133.00 0.75610
133.50 0.77151
134.00 0.78716
134.50 0.80375
135.00 0.82002
135.50 0.83718
136.00 0.85479
136.50 0.87314
137.00 0.89131
137.50 0.91045
138.00 0.93001
138.50 0.94968
139.00 0.97063
139.50 0.99184
140.00 1.01310
140.50 1.03466
141.00 1.05757
141.50 1.08003
142.00 1.10255
142.50 1.12517
143.00 1.14876
143.50 1.17167
144.00 1.19460
144.50 1.21568
145.00 1.23536
145.50 1.25556
146.00 1.27611
146.50 1.29494
147.00 1.31160
147.50 1.32829
148.00 1.34542
148.50 1.36496
149.00 1.38281
149.50 1.40004
150.00 1.41713
150.50 1.43430
151.00 1.45169
151.50 1.46954
152.00 1.48747
152.50 1.50630
153.00 1.52526
153.50 1.54305
154.00 1.55857
154.50 1.57413
155.00 1.58974
155.50 1.60746
156.00 1.62356
156.50 1.63085
157.00 1.63978
157.50 1.64982
158.00 1.65990
158.50 1.66589
159.00 1.66843
159.50 1.67101
160.00 1.67365
160.50 1.67906
161.00 1.68324
161.50 1.68562
162.00 1.68760
162.50 1.68968
163.00 1.69188
163.50 1.69416
164.00 1.69654
164.50 1.69903
165.00 1.70164
165.50 1.70436
166.00 1.70641
166.50 1.70837
167.00 1.70981
167.50 1.71127
168.00 1.71283
168.50 1.71157
169.00 1.71007
169.50 1.70868
170.00 1.70792
170.50 1.70729
171.00 1.70561
171.50 1.70298
172.00 1.70047
172.50 1.69882
173.00 1.69787
173.50 1.69701
174.00 1.69592
174.50 1.69497
175.00 1.69442
175.50 1.69423
176.00 1.69424
176.50 1.69499
177.00 1.69562
177.50 1.69602
178.00 1.69656
178.50 1.69730
179.00 1.69783
179.50 1.69848
180.00 1.69926
180.00 1.69926
180.50 1.69848
181.00 1.69783
181.50 1.69730
182.00 1.69656
182.50 1.69602
183.00 1.69562
183.50 1.69499
184.00 1.69424
184.50 1.69423
185.00 1.69442
185.50 1.69497
186.00 1.69592
186.50 1.69701
187.00 1.69787
187.50 1.69882
188.00 1.70047
188.50 1.70298
189.00 1.70561
189.50 1.70729
190.00 1.70792
190.50 1.70868
191.00 1.71007
191.50 1.71157
192.00 1.71283
192.50 1.71127
193.00 1.70981
193.50 1.70837
194.00 1.70641
194.50 1.70436
195.00 1.70164
195.50 1.69903
196.00 1.69654
196.50 1.69416
197.00 1.69188
197.50 1.68968
198.00 1.68760
198.50 1.68562
199.00 1.68324
199.50 1.67906
200.00 1.67365
200.50 1.67101
201.00 1.66843
201.50 1.66589
202.00 1.65990
202.50 1.64982
203.00 1.63978
203.50 1.63085
204.00 1.62356
204.50 1.60746
205.00 1.58974
205.50 1.57413
206.00 1.55857
206.50 1.54305
207.00 1.52526
207.50 1.50630
208.00 1.48747
208.50 1.46954
209.00 1.45169
209.50 1.43430
210.00 1.41713
210.50 1.40004
211.00 1.38281
211.50 1.36496
212.00 1.34542
212.50 1.32829
213.00 1.31160
213.50 1.29494
214.00 1.27611
214.50 1.25556
215.00 1.23536
215.50 1.21568
216.00 1.19460
216.50 1.17167
217.00 1.14876
217.50 1.12517
218.00 1.10255
218.50 1.08003
219.00 1.05757
219.50 1.03466
220.00 1.01310
220.50 0.99184
221.00 0.97063
221.50 0.94968
222.00 0.93001
222.50 0.91045
223.00 0.89131
223.50 0.87314
224.00 0.85479
224.50 0.83718
225.00 0.82002
225.50 0.80375
226.00 0.78716
226.50 0.77151
227.00 0.75610
227.50 0.74146
228.00 0.72632
228.50 0.71303
229.00 0.69924
229.50 0.68385
230.00 0.66909
230.50 0.65740
231.00 0.64555
231.50 0.62966
232.00 0.61257
232.50 0.59542
233.00 0.58050
233.50 0.56733
234.00 0.55222
234.50 0.53189
235.00 0.51141
235.50 0.49077
236.00 0.47006
236.50 0.44962
237.00 0.42904
237.50 0.40454
238.00 0.37860
238.50 0.35248
239.00 0.32289
239.50 0.29142
240.00 0.26057
240.50 0.23815
241.00 0.21563
241.50 0.19302
242.00 0.16624
242.50 0.13909
243.00 0.12177
243.50 0.10458
244.00 0.09137
244.50 0.07823
245.00 0.06707
245.50 0.05882
246.00 0.05056
246.50 0.04227
247.00 0.03553
247.50 0.03153
248.00 0.02752
248.50 0.02345
249.00 0.01938
249.50 0.01707
250.00 0.01496
250.50 0.01280
251.00 0.01063
251.50 0.00917
252.00 0.00803
252.50 0.00689
253.00 0.00575
253.50 0.00496
254.00 0.00434
254.50 0.00377
255.00 0.00320
255.50 0.00270
256.00 0.00238
256.50 0.00206
257.00 0.00179
257.50 0.00156
258.00 0.00132
258.50 0.00118
259.00 0.00104
259.50 0.00090
260.00 0.00080
260.50 0.00070
261.00 0.00063
261.50 0.00057
262.00 0.00051
262.50 0.00045
263.00 0.00041
263.50 0.00037
264.00 0.00034
264.50 0.00030
265.00 0.00026
265.50 0.00024
266.00 0.00021
266.50 0.00018
267.00 0.00016
267.50 0.00013
268.00 0.00011
268.50 0.00009
269.00 0.00008
269.50 0.00006
270.00 0.00005
270.00 0.00005
270.50 0.00006
271.00 0.00008
271.50 0.00009
272.00 0.00011
272.50 0.00013
273.00 0.00016
273.50 0.00018
274.00 0.00021
274.50 0.00024
275.00 0.00026
275.50 0.00030
276.00 0.00034
276.50 0.00037
277.00 0.00041
277.50 0.00045
278.00 0.00051
278.50 0.00057
279.00 0.00063
279.50 0.00070
280.00 0.00080
280.50 0.00090
281.00 0.00104
281.50 0.00118
282.00 0.00132
282.50 0.00156
283.00 0.00179
283.50 0.00206
284.00 0.00238
284.50 0.00270
285.00 0.00320
285.50 0.00377
286.00 0.00434
286.50 0.00496
287.00 0.00575
287.50 0.00689
288.00 0.00803
288.50 0.00917
289.00 0.01063
289.50 0.01280
290.00 0.01496
290.50 0.01707
291.00 0.01938
291.50 0.02345
292.00 0.02752
292.50 0.03153
293.00 0.03553
293.50 0.04227
294.00 0.05056
294.50 0.05882
295.00 0.06707
295.50 0.07823
296.00 0.09137
296.50 0.10458
297.00 0.12177
297.50 0.13909
298.00 0.16624
298.50 0.19302
299.00 0.21563
299.50 0.23815
300.00 0.26057
300.50 0.29142
301.00 0.32289
301.50 0.35248
302.00 0.37860
302.50 0.40454
303.00 0.42904
303.50 0.44962
304.00 0.47006
304.50 0.49077
305.00 0.51141
305.50 0.53189
306.00 0.55222
306.50 0.56733
307.00 0.58050
307.50 0.59542
308.00 0.61257
308.50 0.62966
309.00 0.64555
309.50 0.65740
310.00 0.66909
310.50 0.68385
311.00 0.69924
311.50 0.71303
312.00 0.72632
312.50 0.74146
313.00 0.75610
313.50 0.77151
314.00 0.78716
314.50 0.80375
315.00 0.82002
315.50 0.83718
316.00 0.85479
316.50 0.87314
317.00 0.89131
317.50 0.91045
318.00 0.93001
318.50 0.94968
319.00 0.97063
319.50 0.99184
320.00 1.01310
320.50 1.03466
321.00 1.05757
321.50 1.08003
322.00 1.10255
322.50 1.12517
323.00 1.14876
323.50 1.17167
324.00 1.19460
324.50 1.21568
325.00 1.23536
325.50 1.25556
326.00 1.27611
326.50 1.29494
327.00 1.31160
327.50 1.32829
328.00 1.34542
328.50 1.36496
329.00 1.38281
329.50 1.40004
330.00 1.41713
330.50 1.43430
331.00 1.45169
331.50 1.46954
332.00 1.48747
332.50 1.50630
333.00 1.52526
333.50 1.54305
334.00 1.55857
334.50 1.57413
335.00 1.58974
335.50 1.60746
336.00 1.62356
336.50 1.63085
337.00 1.63978
337.50 1.64982
338.00 1.65990
338.50 1.66589
339.00 1.66843
339.50 1.67101
340.00 1.67365
340.50 1.67906
341.00 1.68324
341.50 1.68562
342.00 1.68760
342.50 1.68968
343.00 1.69188
343.50 1.69416
344.00 1.69654
344.50 1.69903
345.00 1.70164
345.50 1.70436
346.00 1.70641
346.50 1.70837
347.00 1.70981
347.50 1.71127
348.00 1.71283
348.50 1.71157
349.00 1.71007
349.50 1.70868
350.00 1.70792
350.50 1.70729
351.00 1.70561
351.50 1.70298
352.00 1.70047
352.50 1.69882
353.00 1.69787
353.50 1.69701
354.00 1.69592
354.50 1.69497
355.00 1.69442
355.50 1.69423
356.00 1.69424
356.50 1.69499
357.00 1.69562
357.50 1.69602
358.00 1.69656
358.50 1.69730
359.00 1.69783
359.50 1.69848
360.00 1.69926
