phi[deg] B[T]
0.00 1.77101
0.50 1.77065
1.00 1.77042
1.50 1.77032
2.00 1.77036
2.50 1.77053
3.00 1.77084
3.50 1.77129
4.00 1.77187
4.50 1.77258
5.00 1.77337
5.50 1.77416
6.00 1.77509
6.50 1.77602
7.00 1.77675
7.50 1.77815
8.00 1.77967
8.50 1.78131
9.00 1.78150
9.50 1.78071
10.00 1.78003
10.50 1.78130
11.00 1.78273
11.50 1.78426
12.00 1.78364
12.50 1.78185
13.00 1.78016
13.50 1.77749
14.00 1.77490
14.50 1.77240
15.00 1.77005
15.50 1.76779
16.00 1.76561
16.50 1.76226
17.00 1.75824
17.50 1.75431
18.00 1.75026
18.50 1.74430
19.00 1.73841
19.50 1.73372
20.00 1.72924
20.50 1.72482
21.00 1.71804
21.50 1.71099
22.00 1.70400
22.50 1.69502
23.00 1.68464
23.50 1.67429
24.00 1.66372
24.50 1.65305
25.00 1.64242
25.50 1.63053
26.00 1.61461
26.50 1.59873
27.00 1.58287
27.50 1.56705
28.00 1.55179
28.50 1.53680
29.00 1.52043
29.50 1.50348
30.00 1.48658
30.50 1.47025
31.00 1.45447
31.50 1.43779
32.00 1.42073
32.50 1.40380
33.00 1.38693
33.50 1.37010
34.00 1.35033
34.50 1.32948
35.00 1.31111
35.50 1.29274
36.00 1.27439
36.50 1.25604
37.00 1.23710
37.50 1.21579
38.00 1.19449
38.50 1.17321
39.00 1.15193
39.50 1.12950
40.00 1.10837
40.50 1.08767
41.00 1.06698
41.50 1.04630
42.00 1.02420
42.50 1.00394
43.00 0.98383
43.50 0.96356
44.00 0.94250
44.50 0.92143
45.00 0.90023
45.50 0.87909
46.00 0.85834
46.50 0.83754
47.00 0.81652
47.50 0.79534
48.00 0.77412
48.50 0.75160
49.00 0.73022
49.50 0.70908
50.00 0.68790
50.50 0.66667
51.00 0.64366
51.50 0.62275
52.00 0.60288
52.50 0.58293
53.00 0.56282
53.50 0.54239
54.00 0.52189
54.50 0.50132
55.00 0.48045
55.50 0.45882
56.00 0.43712
56.50 0.41600
57.00 0.39498
57.50 0.37389
58.00 0.35272
58.50 0.33147
59.00 0.31061
59.50 0.29147
60.00 0.27222
60.50 0.25282
61.00 0.23337
61.50 0.21387
62.00 0.19432
62.50 0.17614
63.00 0.16286
63.50 0.14951
64.00 0.13614
64.50 0.12277
65.00 0.11038
65.50 0.10161
66.00 0.09283
66.50 0.08404
67.00 0.07580
67.50 0.06882
68.00 0.06185
68.50 0.05487
69.00 0.04978
69.50 0.04543
70.00 0.04108
70.50 0.03673
71.00 0.03273
71.50 0.02982
72.00 0.02692
72.50 0.02402
73.00 0.02181
73.50 0.01982
74.00 0.01783
74.50 0.01584
75.00 0.01436
75.50 0.01314
76.00 0.01192
76.50 0.01071
77.00 0.00966
77.50 0.00865
78.00 0.00764
78.50 0.00700
79.00 0.00647
79.50 0.00595
80.00 0.00543
80.50 0.00487
81.00 0.00431
81.50 0.00375
82.00 0.00349
82.50 0.00323
83.00 0.00297
83.50 0.00270
84.00 0.00244
84.50 0.00217
85.00 0.00201
85.50 0.00189
86.00 0.00177
86.50 0.00165
87.00 0.00153
87.50 0.00141
88.00 0.00137
88.50 0.00132
89.00 0.00127
89.50 0.00123
90.00 0.00118
90.00 0.00118
90.50 0.00123
91.00 0.00127
91.50 0.00132
92.00 0.00137
92.50 0.00141
93.00 0.00153
93.50 0.00165
94.00 0.00177
94.50 0.00189
95.00 0.00201
95.50 0.00217
96.00 0.00244
96.50 0.00270
97.00 0.00297
97.50 0.00323
98.00 0.00349
98.50 0.00375
99.00 0.00431
99.50 0.00487
100.00 0.00543
100.50 0.00595
101.00 0.00647
101.50 0.00700
102.00 0.00764
102.50 0.00865
103.00 0.00966
103.50 0.01071
104.00 0.01192
104.50 0.01314
105.00 0.01436
105.50 0.01584
106.00 0.01783
106.50 0.01982
107.00 0.02181
107.50 0.02402
108.00 0.02692
108.50 0.02982
109.00 0.03273
109.50 0.03673
110.00 0.04108
110.50 0.04543
111.00 0.04978
111.50 0.05487
112.00 0.06185
112.50 0.06882
113.00 0.07580
113.50 0.08404
114.00 0.09283
114.50 0.10161
115.00 0.11038
115.50 0.12277
116.00 0.13614
116.50 0.14951
117.00 0.16286
117.50 0.17614
118.00 0.19432
118.50 0.21387
119.00 0.23337
119.50 0.25282
120.00 0.27222
120.50 0.29147
121.00 0.31061
121.50 0.33147
122.00 0.35272
122.50 0.37389
123.00 0.39498
123.50 0.41600
124.00 0.43712
124.50 0.45882
125.00 0.48045
125.50 0.50132
126.00 0.52189
126.50 0.54239
127.00 0.56282
127.50 0.58293
128.00 0.60288
128.50 0.62275
129.00 0.64366
129.50 0.66667
130.00 0.68790
130.50 0.70908
131.00 0.73022
131.50 0.75160
132.00 0.77412
132.50 0.79534
133.00 0.81652
133.50 0.83754
134.00 0.85834
134.50 0.87909
135.00 0.90023
135.50 0.92143
136.00 0.94250
136.50 0.96356
137.00 0.98383
137.50 1.00394
138.00 1.02420
138.50 1.04630
139.00 1.06698
139.50 1.08767
140.00 1.10837
140.50 1.12950
141.00 1.15193
141.50 1.17321
142.00 1.19449
142.50 1.21579
143.00 1.23710
143.50 1.25604
144.00 1.27439
144.50 1.29274
145.00 1.31111
145.50 1.32948
146.00 1.35033
146.50 1.37010
147.00 1.38693
147.50 1.40380
148.00 1.42073
148.50 1.43779
149.00 1.45447
149.50 1.47025
150.00 1.48658
150.50 1.50348
151.00 1.52043
151.50 1.53680
152.00 1.55179
152.50 1.56705
153.00 1.58287
153.50 1.59873
154.00 1.61461
154.50 1.63053
155.00 1.64242
155.50 1.65305
156.00 1.66372
156.50 1.67429
157.00 1.68464
157.50 1.69502
158.00 1.70400
158.50 1.71099
159.00 1.71804
159.50 1.72482
160.00 1.72924
160.50 1.73372
161.00 1.73841
161.50 1.74430
162.00 1.75026
162.50 1.75431
163.00 1.75824
163.50 1.76226
164.00 1.76561
164.50 1.76779
165.00 1.77005
165.50 1.77240
166.00 1.77490
166.50 1.77749
167.00 1.78016
167.50 1.78185
168.00 1.78364
168.50 1.78426
169.00 1.78273
169.50 1.78130
170.00 1.78003
170.50 1.78071
171.00 1.78150
171.50 1.78131
172.00 1.77967
172.50 1.77815
173.00 1.77675
173.50 1.77602
174.00 1.77509
174.50 1.77416
175.00 1.77337
175.50 1.77258
176.00 1.77187
176.50 1.77129
177.00 1.77084
177.50 1.77053
178.00 1.77036
178.50 1.77032
179.00 1.77042
179.50 1.77065
180.00 1.77101
180.00 1.77101
180.50 1.77065
181.00 1.77042
181.50 1.77032
182.00 1.77036
182.50 1.77053
183.00 1.77084
183.50 1.77129
184.00 1.77187
184.50 1.77258
185.00 1.77337
185.50 1.77416
186.00 1.77509
186.50 1.77602
187.00 1.77675
187.50 1.77815
188.00 1.77967
188.50 1.78131
189.00 1.78150
189.50 1.78071
190.00 1.78003
190.50 1.78130
191.00 1.78273
191.50 1.78426
192.00 1.78364
192.50 1.78185
193.00 1.78016
193.50 1.77749
194.00 1.77490
194.50 1.77240
195.00 1.77005
195.50 1.76779
196.00 1.76561
196.50 1.76226
197.00 1.75824
197.50 1.75431
198.00 1.75026
198.50 1.74430
199.00 1.73841
199.50 1.73372
200.00 1.72924
200.50 1.72482
201.00 1.71804
201.50 1.71099
202.00 1.70400
202.50 1.69502
203.00 1.68464
203.50 1.67429
204.00 1.66372
204.50 1.65305
205.00 1.64242
205.50 1.63053
206.00 1.61461
206.50 1.59873
207.00 1.58287
207.50 1.56705
208.00 1.55179
208.50 1.53680
209.00 1.52043
209.50 1.50348
210.00 1.48658
210.50 1.47025
211.00 1.45447
211.50 1.43779
212.00 1.42073
212.50 1.40380
213.00 1.38693
213.50 1.37010
214.00 1.35033
214.50 1.32948
215.00 1.31111
215.50 1.29274
216.00 1.27439
216.50 1.25604
217.00 1.23710
217.50 1.21579
218.00 1.19449
218.50 1.17321
219.00 1.15193
219.50 1.12950
220.00 1.10837
220.50 1.08767
221.00 1.06698
221.50 1.04630
222.00 1.02420
222.50 1.00394
223.00 0.98383
223.50 0.96356
224.00 0.94250
224.50 0.92143
225.00 0.90023
225.50 0.87909
226.00 0.85834
226.50 0.83754
227.00 0.81652
227.50 0.79534
228.00 0.77412
228.50 0.75160
229.00 0.73022
229.50 0.70908
230.00 0.68790
230.50 0.66667
231.00 0.64366
231.50 0.62275
232.00 0.60288
232.50 0.58293
233.00 0.56282
233.50 0.54239
234.00 0.52189
234.50 0.50132
235.00 0.48045
235.50 0.45882
236.00 0.43712
236.50 0.41600
237.00 0.39498
237.50 0.37389
238.00 0.35272
238.50 0.33147
239.00 0.31061
239.50 0.29147
240.00 0.27222
240.50 0.25282
241.00 0.23337
241.50 0.21387
242.00 0.19432
242.50 0.17614
243.00 0.16286
243.50 0.14951
244.00 0.13614
244.50 0.12277
245.00 0.11038
245.50 0.10161
246.00 0.09283
246.50 0.08404
247.00 0.07580
247.50 0.06882
248.00 0.06185
248.50 0.05487
249.00 0.04978
249.50 0.04543
250.00 0.04108
250.50 0.03673
251.00 0.03273
251.50 0.02982
252.00 0.02692
252.50 0.02402
253.00 0.02181
253.50 0.01982
254.00 0.01783
254.50 0.01584
255.00 0.01436
255.50 0.01314
256.00 0.01192
256.50 0.01071
257.00 0.00966
257.50 0.00865
258.00 0.00764
258.50 0.00700
259.00 0.00647
259.50 0.00595
260.00 0.00543
260.50 0.00487
261.00 0.00431
261.50 0.00375
262.00 0.00349
262.50 0.00323
263.00 0.00297
263.50 0.00270
264.00 0.00244
264.50 0.00217
265.00 0.00201
265.50 0.00189
266.00 0.00177
266.50 0.00165
267.00 0.00153
267.50 0.00141
268.00 0.00137
268.50 0.00132
269.00 0.00127
269.50 0.00123
270.00 0.00118
270.00 0.00118
270.50 0.00123
271.00 0.00127
271.50 0.00132
272.00 0.00137
272.50 0.00141
273.00 0.00153
273.50 0.00165
274.00 0.00177
274.50 0.00189
275.00 0.00201
275.50 0.00217
276.00 0.00244
276.50 0.00270
277.00 0.00297
277.50 0.00323
278.00 0.00349
278.50 0.00375
279.00 0.00431
279.50 0.00487
280.00 0.00543
280.50 0.00595
281.00 0.00647
281.50 0.00700
282.00 0.00764
282.50 0.00865
283.00 0.00966
283.50 0.01071
284.00 0.01192
284.50 0.01314
285.00 0.01436
285.50 0.01584
286.00 0.01783
286.50 0.01982
287.00 0.02181
287.50 0.02402
288.00 0.02692
288.50 0.02982
289.00 0.03273
289.50 0.03673
290.00 0.04108
290.50 0.04543
291.00 0.04978
291.50 0.05487
292.00 0.06185
292.50 0.06882
293.00 0.07580
293.50 0.08404
294.00 0.09283
294.50 0.10161
295.00 0.11038
295.50 0.12277
296.00 0.13614
296.50 0.14951
297.00 0.16286
297.50 0.17614
298.00 0.19432
298.50 0.21387
299.00 0.23337
299.50 0.25282
300.00 0.27222
300.50 0.29147
301.00 0.31061
301.50 0.33147
302.00 0.35272
302.50 0.37389
303.00 0.39498
303.50 0.41600
304.00 0.43712
304.50 0.45882
305.00 0.48045
305.50 0.50132
306.00 0.52189
306.50 0.54239
307.00 0.56282
307.50 0.58293
308.00 0.60288
308.50 0.62275
309.00 0.64366
309.50 0.66667
310.00 0.68790
310.50 0.70908
311.00 0.73022
311.50 0.75160
312.00 0.77412
312.50 0.79534
313.00 0.81652
313.50 0.83754
314.00 0.85834
314.50 0.87909
315.00 0.90023
315.50 0.92143
316.00 0.94250
316.50 0.96356
317.00 0.98383
317.50 1.00394
318.00 1.02420
318.50 1.04630
319.00 1.06698
319.50 1.08767
320.00 1.10837
320.50 1.12950
321.00 1.15193
321.50 1.17321
322.00 1.19449
322.50 1.21579
323.00 1.23710
323.50 1.25604
324.00 1.27439
324.50 1.29274
325.00 1.31111
325.50 1.32948
326.00 1.35033
326.50 1.37010
327.00 1.38693
327.50 1.40380
328.00 1.42073
328.50 1.43779
329.00 1.45447
329.50 1.47025
330.00 1.48658
330.50 1.50348
331.00 1.52043
331.50 1.53680
332.00 1.55179
332.50 1.56705
333.00 1.58287
333.50 1.59873
334.00 1.61461
334.50 1.63053
335.00 1.64242
335.50 1.65305
336.00 1.66372
336.50 1.67429
337.00 1.68464
337.50 1.69502
338.00 1.70400
338.50 1.71099
339.00 1.71804
339.50 1.72482
340.00 1.72924
340.50 1.73372
341.00 1.73841
341.50 1.74430
342.00 1.75026
342.50 1.75431
343.00 1.75824
343.50 1.76226
344.00 1.76561
344.50 1.76779
345.00 1.77005
345.50 1.77240
346.00 1.77490
346.50 1.77749
347.00 1.78016
347.50 1.78185
348.00 1.78364
348.50 1.78426
349.00 1.78273
349.50 1.78130
350.00 1.78003
350.50 1.78071
351.00 1.78150
351.50 1.78131
352.00 1.77967
352.50 1.77815
353.00 1.77675
353.50 1.77602
354.00 1.77509
354.50 1.77416
355.00 1.77337
355.50 1.77258
356.00 1.77187
356.50 1.77129
357.00 1.77084
357.50 1.77053
358.00 1.77036
358.50 1.77032
359.00 1.77042
359.50 1.77065
360.00 1.77101
