phi[deg] B[T]
0.00 1.27452
0.50 1.27320
1.00 1.27197
1.50 1.27076
2.00 1.26875
2.50 1.26685
3.00 1.26505
3.50 1.26390
4.00 1.26290
4.50 1.26153
5.00 1.26026
5.50 1.25974
6.00 1.25989
6.50 1.26039
7.00 1.26172
7.50 1.26315
8.00 1.26449
8.50 1.26591
9.00 1.26754
9.50 1.27085
10.00 1.27378
10.50 1.27636
11.00 1.27726
11.50 1.27818
12.00 1.27865
12.50 1.27670
13.00 1.27483
13.50 1.27324
14.00 1.27178
14.50 1.26946
15.00 1.26636
15.50 1.26352
16.00 1.26164
16.50 1.25986
17.00 1.25866
17.50 1.25778
18.00 1.25669
18.50 1.25523
19.00 1.25386
19.50 1.25479
20.00 1.25617
20.50 1.25481
21.00 1.25194
21.50 1.24911
22.00 1.24664
22.50 1.24857
23.00 1.24124
23.50 1.23393
24.00 1.22667
24.50 1.21941
25.00 1.20624
25.50 1.19120
26.00 1.17799
26.50 1.16506
27.00 1.15142
27.50 1.13585
28.00 1.12056
28.50 1.10694
29.00 1.09338
29.50 1.07990
30.00 1.06657
30.50 1.05462
31.00 1.04256
31.50 1.02984
32.00 1.01718
32.50 1.00520
33.00 0.99474
33.50 0.98371
34.00 0.97038
34.50 0.95710
35.00 0.94449
35.50 0.93257
36.00 0.91901
36.50 0.90377
37.00 0.88855
37.50 0.87356
38.00 0.85889
38.50 0.84315
39.00 0.82681
39.50 0.81041
40.00 0.79404
40.50 0.77755
41.00 0.76082
41.50 0.74347
42.00 0.72578
42.50 0.70822
43.00 0.69041
43.50 0.67212
44.00 0.65404
44.50 0.63567
45.00 0.61705
45.50 0.59837
46.00 0.58085
46.50 0.56376
47.00 0.54715
47.50 0.53265
48.00 0.51982
48.50 0.50936
49.00 0.49953
49.50 0.49142
50.00 0.48726
50.50 0.48575
51.00 0.47857
51.50 0.47138
52.00 0.46593
52.50 0.46386
53.00 0.45868
53.50 0.44902
54.00 0.43927
54.50 0.43003
55.00 0.42190
55.50 0.41026
56.00 0.39336
56.50 0.37630
57.00 0.35912
57.50 0.34180
58.00 0.32170
58.50 0.29874
59.00 0.27496
59.50 0.24510
60.00 0.21511
60.50 0.19197
61.00 0.17071
61.50 0.14892
62.00 0.12335
62.50 0.10237
63.00 0.08572
63.50 0.07377
64.00 0.06199
64.50 0.05092
65.00 0.04331
65.50 0.03569
66.00 0.02947
66.50 0.02426
67.00 0.02094
67.50 0.01761
68.00 0.01428
68.50 0.01201
69.00 0.01032
69.50 0.00862
70.00 0.00691
70.50 0.00602
71.00 0.00513
71.50 0.00421
72.00 0.00350
72.50 0.00303
73.00 0.00257
73.50 0.00211
74.00 0.00188
74.50 0.00164
75.00 0.00142
75.50 0.00121
76.00 0.00110
76.50 0.00101
77.00 0.00092
77.50 0.00084
78.00 0.00078
78.50 0.00072
79.00 0.00067
79.50 0.00064
80.00 0.00061
80.50 0.00057
81.00 0.00054
81.50 0.00051
82.00 0.00048
82.50 0.00045
83.00 0.00042
83.50 0.00039
84.00 0.00037
84.50 0.00034
85.00 0.00031
85.50 0.00029
86.00 0.00026
86.50 0.00023
87.00 0.00020
87.50 0.00018
88.00 0.00016
88.50 0.00013
89.00 0.00012
89.50 0.00011
90.00 0.00010
90.00 0.00010
90.50 0.00011
91.00 0.00012
91.50 0.00013
92.00 0.00016
92.50 0.00018
93.00 0.00020
93.50 0.00023
94.00 0.00026
94.50 0.00029
95.00 0.00031
95.50 0.00034
96.00 0.00037
96.50 0.00039
97.00 0.00042
97.50 0.00045
98.00 0.00048
98.50 0.00051
99.00 0.00054
99.50 0.00057
100.00 0.00061
100.50 0.00064
101.00 0.00067
101.50 0.00072
102.00 0.00078
102.50 0.00084
103.00 0.00092
103.50 0.00101
104.00 0.00110
104.50 0.00121
105.00 0.00142
105.50 0.00164
106.00 0.00188
106.50 0.00211
107.00 0.00257
107.50 0.00303
108.00 0.00350
108.50 0.00421
109.00 0.00513
109.50 0.00602
110.00 0.00691
110.50 0.00862
111.00 0.01032
111.50 0.01201
112.00 0.01428
112.50 0.01761
113.00 0.02094
113.50 0.02426
114.00 0.02947
114.50 0.03569
115.00 0.04331
115.50 0.05092
116.00 0.06199
116.50 0.07377
117.00 0.08572
117.50 0.10237
118.00 0.12335
118.50 0.14892
119.00 0.17071
119.50 0.19197
120.00 0.21511
120.50 0.24510
121.00 0.27496
121.50 0.29874
122.00 0.32170
122.50 0.34180
123.00 0.35912
123.50 0.37630
124.00 0.39336
124.50 0.41026
125.00 0.42190
125.50 0.43003
126.00 0.43927
126.50 0.44902
127.00 0.45868
127.50 0.46386
128.00 0.46593
128.50 0.47138
129.00 0.47857
129.50 0.48575
130.00 0.48726
130.50 0.49142
131.00 0.49953
131.50 0.50936
132.00 0.51982
132.50 0.53265
133.00 0.54715
133.50 0.56376
134.00 0.58085
134.50 0.59837
135.00 0.61705
135.50 0.63567
136.00 0.65404
136.50 0.67212
137.00 0.69041
137.50 0.70822
138.00 0.72578
138.50 0.74347
139.00 0.76082
139.50 0.77755
140.00 0.79404
140.50 0.81041
141.00 0.82681
141.50 0.84315
142.00 0.85889
142.50 0.87356
143.00 0.88855
143.50 0.90377
144.00 0.91901
144.50 0.93257
145.00 0.94449
145.50 0.95710
146.00 0.97038
146.50 0.98371
147.00 0.99474
147.50 1.00520
148.00 1.01718
148.50 1.02984
149.00 1.04256
149.50 1.05462
150.00 1.06657
150.50 1.07990
151.00 1.09338
151.50 1.10694
152.00 1.12056
152.50 1.13585
153.00 1.15142
153.50 1.16506
154.00 1.17799
154.50 1.19120
155.00 1.20624
155.50 1.21941
156.00 1.22667
156.50 1.23393
157.00 1.24124
157.50 1.24857
158.00 1.24664
158.50 1.24911
159.00 1.25194
159.50 1.25481
160.00 1.25617
160.50 1.25479
161.00 1.25386
161.50 1.25523
162.00 1.25669
162.50 1.25778
163.00 1.25866
163.50 1.25986
164.00 1.26164
164.50 1.26352
165.00 1.26636
165.50 1.26946
166.00 1.27178
166.50 1.27324
167.00 1.27483
167.50 1.27670
168.00 1.27865
168.50 1.27818
169.00 1.27726
169.50 1.27636
170.00 1.27378
170.50 1.27085
171.00 1.26754
171.50 1.26591
172.00 1.26449
172.50 1.26315
173.00 1.26172
173.50 1.26039
174.00 1.25989
174.50 1.25974
175.00 1.26026
175.50 1.26153
176.00 1.26290
176.50 1.26390
177.00 1.26505
177.50 1.26685
178.00 1.26875
178.50 1.27076
179.00 1.27197
179.50 1.27320
180.00 1.27452
180.00 1.27452
180.50 1.27320
181.00 1.27197
181.50 1.27076
182.00 1.26875
182.50 1.26685
183.00 1.26505
183.50 1.26390
184.00 1.26290
184.50 1.26153
185.00 1.26026
185.50 1.25974
186.00 1.25989
186.50 1.26039
187.00 1.26172
187.50 1.26315
188.00 1.26449
188.50 1.26591
189.00 1.26754
189.50 1.27085
190.00 1.27378
190.50 1.27636
191.00 1.27726
191.50 1.27818
192.00 1.27865
192.50 1.27670
193.00 1.27483
193.50 1.27324
194.00 1.27178
194.50 1.26946
195.00 1.26636
195.50 1.26352
196.00 1.26164
196.50 1.25986
197.00 1.25866
197.50 1.25778
198.00 1.25669
198.50 1.25523
199.00 1.25386
199.50 1.25479
200.00 1.25617
200.50 1.25481
201.00 1.25194
201.50 1.24911
202.00 1.24664
202.50 1.24857
203.00 1.24124
203.50 1.23393
204.00 1.22667
204.50 1.21941
205.00 1.20624
205.50 1.19120
206.00 1.17799
206.50 1.16506
207.00 1.15142
207.50 1.13585
208.00 1.12056
208.50 1.10694
209.00 1.09338
209.50 1.07990
210.00 1.06657
210.50 1.05462
211.00 1.04256
211.50 1.02984
212.00 1.01718
212.50 1.00520
213.00 0.99474
213.50 0.98371
214.00 0.97038
214.50 0.95710
215.00 0.94449
215.50 0.93257
216.00 0.91901
216.50 0.90377
217.00 0.88855
217.50 0.87356
218.00 0.85889
218.50 0.84315
219.00 0.82681
219.50 0.81041
220.00 0.79404
220.50 0.77755
221.00 0.76082
221.50 0.74347
222.00 0.72578
222.50 0.70822
223.00 0.69041
223.50 0.67212
224.00 0.65404
224.50 0.63567
225.00 0.61705
225.50 0.59837
226.00 0.58085
226.50 0.56376
227.00 0.54715
227.50 0.53265
228.00 0.51982
228.50 0.50936
229.00 0.49953
229.50 0.49142
230.00 0.48726
230.50 0.48575
231.00 0.47857
231.50 0.47138
232.00 0.46593
232.50 0.46386
233.00 0.45868
233.50 0.44902
234.00 0.43927
234.50 0.43003
235.00 0.42190
235.50 0.41026
236.00 0.39336
236.50 0.37630
237.00 0.35912
237.50 0.34180
238.00 0.32170
238.50 0.29874
239.00 0.27496
239.50 0.24510
240.00 0.21511
240.50 0.19197
241.00 0.17071
241.50 0.14892
242.00 0.12335
242.50 0.10237
243.00 0.08572
243.50 0.07377
244.00 0.06199
244.50 0.05092
245.00 0.04331
245.50 0.03569
246.00 0.02947
246.50 0.02426
247.00 0.02094
247.50 0.01761
248.00 0.01428
248.50 0.01201
249.00 0.01032
249.50 0.00862
250.00 0.00691
250.50 0.00602
251.00 0.00513
251.50 0.00421
252.00 0.00350
252.50 0.00303
253.00 0.00257
253.50 0.00211
254.00 0.00188
254.50 0.00164
255.00 0.00142
255.50 0.00121
256.00 0.00110
256.50 0.00101
257.00 0.00092
257.50 0.00084
258.00 0.00078
258.50 0.00072
259.00 0.00067
259.50 0.00064
260.00 0.00061
260.50 0.00057
261.00 0.00054
261.50 0.00051
262.00 0.00048
262.50 0.00045
263.00 0.00042
263.50 0.00039
264.00 0.00037
264.50 0.00034
265.00 0.00031
265.50 0.00029
266.00 0.00026
266.50 0.00023
267.00 0.00020
267.50 0.00018
268.00 0.00016
268.50 0.00013
269.00 0.00012
269.50 0.00011
270.00 0.00010
270.00 0.00010
270.50 0.00011
271.00 0.00012
271.50 0.00013
272.00 0.00016
272.50 0.00018
273.00 0.00020
273.50 0.00023
274.00 0.00026
274.50 0.00029
275.00 0.00031
275.50 0.00034
276.00 0.00037
276.50 0.00039
277.00 0.00042
277.50 0.00045
278.00 0.00048
278.50 0.00051
279.00 0.00054
279.50 0.00057
280.00 0.00061
280.50 0.00064
281.00 0.00067
281.50 0.00072
282.00 0.00078
282.50 0.00084
283.00 0.00092
283.50 0.00101
284.00 0.00110
284.50 0.00121
285.00 0.00142
285.50 0.00164
286.00 0.00188
286.50 0.00211
287.00 0.00257
287.50 0.00303
288.00 0.00350
288.50 0.00421
289.00 0.00513
289.50 0.00602
290.00 0.00691
290.50 0.00862
291.00 0.01032
291.50 0.01201
292.00 0.01428
292.50 0.01761
293.00 0.02094
293.50 0.02426
294.00 0.02947
294.50 0.03569
295.00 0.04331
295.50 0.05092
296.00 0.06199
296.50 0.07377
297.00 0.08572
297.50 0.10237
298.00 0.12335
298.50 0.14892
299.00 0.17071
299.50 0.19197
300.00 0.21511
300.50 0.24510
301.00 0.27496
301.50 0.29874
302.00 0.32170
302.50 0.34180
303.00 0.35912
303.50 0.37630
304.00 0.39336
304.50 0.41026
305.00 0.42190
305.50 0.43003
306.00 0.43927
306.50 0.44902
307.00 0.45868
307.50 0.46386
308.00 0.46593
308.50 0.47138
309.00 0.47857
309.50 0.48575
310.00 0.48726
310.50 0.49142
311.00 0.49953
311.50 0.50936
312.00 0.51982
312.50 0.53265
313.00 0.54715
313.50 0.56376
314.00 0.58085
314.50 0.59837
315.00 0.61705
315.50 0.63567
316.00 0.65404
316.50 0.67212
317.00 0.69041
317.50 0.70822
318.00 0.72578
318.50 0.74347
319.00 0.76082
319.50 0.77755
320.00 0.79404
320.50 0.81041
321.00 0.82681
321.50 0.84315
322.00 0.85889
322.50 0.87356
323.00 0.88855
323.50 0.90377
324.00 0.91901
324.50 0.93257
325.00 0.94449
325.50 0.95710
326.00 0.97038
326.50 0.98371
327.00 0.99474
327.50 1.00520
328.00 1.01718
328.50 1.02984
329.00 1.04256
329.50 1.05462
330.00 1.06657
330.50 1.07990
331.00 1.09338
331.50 1.10694
332.00 1.12056
332.50 1.13585
333.00 1.15142
333.50 1.16506
334.00 1.17799
334.50 1.19120
335.00 1.20624
335.50 1.21941
336.00 1.22667
336.50 1.23393
337.00 1.24124
337.50 1.24857
338.00 1.24664
338.50 1.24911
339.00 1.25194
339.50 1.25481
340.00 1.25617
340.50 1.25479
341.00 1.25386
341.50 1.25523
342.00 1.25669
342.50 1.25778
343.00 1.25866
343.50 1.25986
344.00 1.26164
344.50 1.26352
345.00 1.26636
345.50 1.26946
346.00 1.27178
346.50 1.27324
347.00 1.27483
347.50 1.27670
348.00 1.27865
348.50 1.27818
349.00 1.27726
349.50 1.27636
350.00 1.27378
350.50 1.27085
351.00 1.26754
351.50 1.26591
352.00 1.26449
352.50 1.26315
353.00 1.26172
353.50 1.26039
354.00 1.25989
354.50 1.25974
355.00 1.26026
355.50 1.26153
356.00 1.26290
356.50 1.26390
357.00 1.26505
357.50 1.26685
358.00 1.26875
358.50 1.27076
359.00 1.27197
359.50 1.27320
360.00 1.27452
