phi[deg] B[T]
0.00 1.49230
0.50 1.49195
1.00 1.49173
1.50 1.49161
2.00 1.49161
2.50 1.49172
3.00 1.49196
3.50 1.49231
4.00 1.49277
4.50 1.49335
5.00 1.49423
5.50 1.49535
6.00 1.49657
6.50 1.49719
7.00 1.49793
7.50 1.49877
8.00 1.50019
8.50 1.50172
9.00 1.50336
9.50 1.50394
10.00 1.50355
10.50 1.50337
11.00 1.50469
11.50 1.50610
12.00 1.50635
12.50 1.50545
13.00 1.50371
13.50 1.50149
14.00 1.49935
14.50 1.49728
15.00 1.49529
15.50 1.49336
16.00 1.49146
16.50 1.48944
17.00 1.48772
17.50 1.48384
18.00 1.47975
18.50 1.47571
19.00 1.47173
19.50 1.46780
20.00 1.46392
20.50 1.46077
21.00 1.45909
21.50 1.45363
22.00 1.44598
22.50 1.43833
23.00 1.43045
23.50 1.42260
24.00 1.41478
24.50 1.40526
25.00 1.39385
25.50 1.38247
26.00 1.37064
26.50 1.35756
27.00 1.34452
27.50 1.33187
28.00 1.31925
28.50 1.30653
29.00 1.29346
29.50 1.28038
30.00 1.26560
30.50 1.25086
31.00 1.23614
31.50 1.22145
32.00 1.20720
32.50 1.19428
33.00 1.18138
33.50 1.16517
34.00 1.14818
34.50 1.13120
35.00 1.11422
35.50 1.09705
36.00 1.07975
36.50 1.06213
37.00 1.04452
37.50 1.02665
38.00 1.00772
38.50 0.98880
39.00 0.96989
39.50 0.95079
40.00 0.93253
40.50 0.91430
41.00 0.89612
41.50 0.87796
42.00 0.86034
42.50 0.84349
43.00 0.82615
43.50 0.80875
44.00 0.79158
44.50 0.77457
45.00 0.75751
45.50 0.74071
46.00 0.72400
46.50 0.70717
47.00 0.69000
47.50 0.67282
48.00 0.65577
48.50 0.63879
49.00 0.62156
49.50 0.60429
50.00 0.58772
50.50 0.57156
51.00 0.55358
51.50 0.53528
52.00 0.51694
52.50 0.50127
53.00 0.48553
53.50 0.46941
54.00 0.45289
54.50 0.43631
55.00 0.41938
55.50 0.40111
56.00 0.38275
56.50 0.36431
57.00 0.34528
57.50 0.32596
58.00 0.30656
58.50 0.28709
59.00 0.26754
59.50 0.24951
60.00 0.23206
60.50 0.21457
61.00 0.19702
61.50 0.17943
62.00 0.16585
62.50 0.15368
63.00 0.14148
63.50 0.12925
64.00 0.11633
64.50 0.10284
65.00 0.08933
65.50 0.07916
66.00 0.07233
66.50 0.06549
67.00 0.05939
67.50 0.05361
68.00 0.04784
68.50 0.04207
69.00 0.03691
69.50 0.03355
70.00 0.03018
70.50 0.02681
71.00 0.02396
71.50 0.02169
72.00 0.01942
72.50 0.01715
73.00 0.01540
73.50 0.01390
74.00 0.01240
74.50 0.01090
75.00 0.00990
75.50 0.00902
76.00 0.00814
76.50 0.00726
77.00 0.00641
77.50 0.00568
78.00 0.00495
78.50 0.00453
79.00 0.00415
79.50 0.00378
80.00 0.00343
80.50 0.00307
81.00 0.00271
81.50 0.00236
82.00 0.00213
82.50 0.00195
83.00 0.00176
83.50 0.00158
84.00 0.00143
84.50 0.00128
85.00 0.00114
85.50 0.00107
86.00 0.00100
86.50 0.00093
87.00 0.00086
87.50 0.00079
88.00 0.00075
88.50 0.00073
89.00 0.00070
89.50 0.00067
90.00 0.00064
90.00 0.00064
90.50 0.00067
91.00 0.00070
91.50 0.00073
92.00 0.00075
92.50 0.00079
93.00 0.00086
93.50 0.00093
94.00 0.00100
94.50 0.00107
95.00 0.00114
95.50 0.00128
96.00 0.00143
96.50 0.00158
97.00 0.00176
97.50 0.00195
98.00 0.00213
98.50 0.00236
99.00 0.00271
99.50 0.00307
100.00 0.00343
100.50 0.00378
101.00 0.00415
101.50 0.00453
102.00 0.00495
102.50 0.00568
103.00 0.00641
103.50 0.00726
104.00 0.00814
104.50 0.00902
105.00 0.00990
105.50 0.01090
106.00 0.01240
106.50 0.01390
107.00 0.01540
107.50 0.01715
108.00 0.01942
108.50 0.02169
109.00 0.02396
109.50 0.02681
110.00 0.03018
110.50 0.03355
111.00 0.03691
111.50 0.04207
112.00 0.04784
112.50 0.05361
113.00 0.05939
113.50 0.06549
114.00 0.07233
114.50 0.07916
115.00 0.08933
115.50 0.10284
116.00 0.11633
116.50 0.12925
117.00 0.14148
117.50 0.15368
118.00 0.16585
118.50 0.17943
119.00 0.19702
119.50 0.21457
120.00 0.23206
120.50 0.24951
121.00 0.26754
121.50 0.28709
122.00 0.30656
122.50 0.32596
123.00 0.34528
123.50 0.36431
124.00 0.38275
124.50 0.40111
125.00 0.41938
125.50 0.43631
126.00 0.45289
126.50 0.46941
127.00 0.48553
127.50 0.50127
128.00 0.51694
128.50 0.53528
129.00 0.55358
129.50 0.57156
130.00 0.58772
130.50 0.60429
131.00 0.62156
131.50 0.63879
132.00 0.65577
132.50 0.67282
133.00 0.69000
133.50 0.70717
134.00 0.72400
134.50 0.74071
135.00 0.75751
135.50 0.77457
136.00 0.79158
136.50 0.80875
137.00 0.82615
137.50 0.84349
138.00 0.86034
138.50 0.87796
139.00 0.89612
139.50 0.91430
140.00 0.93253
140.50 0.95079
141.00 0.96989
141.50 0.98880
142.00 1.00772
142.50 1.02665
143.00 1.04452
143.50 1.06213
144.00 1.07975
144.50 1.09705
145.00 1.11422
145.50 1.13120
146.00 1.14818
146.50 1.16517
147.00 1.18138
147.50 1.19428
148.00 1.20720
148.50 1.22145
149.00 1.23614
149.50 1.25086
150.00 1.26560
150.50 1.28038
151.00 1.29346
151.50 1.30653
152.00 1.31925
152.50 1.33187
153.00 1.34452
153.50 1.35756
154.00 1.37064
154.50 1.38247
155.00 1.39385
155.50 1.40526
156.00 1.41478
156.50 1.42260
157.00 1.43045
157.50 1.43833
158.00 1.44598
158.50 1.45363
159.00 1.45909
159.50 1.46077
160.00 1.46392
160.50 1.46780
161.00 1.47173
161.50 1.47571
162.00 1.47975
162.50 1.48384
163.00 1.48772
163.50 1.48944
164.00 1.49146
164.50 1.49336
165.00 1.49529
165.50 1.49728
166.00 1.49935
166.50 1.50149
167.00 1.50371
167.50 1.50545
168.00 1.50635
168.50 1.50610
169.00 1.50469
169.50 1.50337
170.00 1.50355
170.50 1.50394
171.00 1.50336
171.50 1.50172
172.00 1.50019
172.50 1.49877
173.00 1.49793
173.50 1.49719
174.00 1.49657
174.50 1.49535
175.00 1.49423
175.50 1.49335
176.00 1.49277
176.50 1.49231
177.00 1.49196
177.50 1.49172
178.00 1.49161
178.50 1.49161
179.00 1.49173
179.50 1.49195
180.00 1.49230
180.00 1.49230
180.50 1.49195
181.00 1.49173
181.50 1.49161
182.00 1.49161
182.50 1.49172
183.00 1.49196
183.50 1.49231
184.00 1.49277
184.50 1.49335
185.00 1.49423
185.50 1.49535
186.00 1.49657
186.50 1.49719
187.00 1.49793
187.50 1.49877
188.00 1.50019
188.50 1.50172
189.00 1.50336
189.50 1.50394
190.00 1.50355
190.50 1.50337
191.00 1.50469
191.50 1.50610
192.00 1.50635
192.50 1.50545
193.00 1.50371
193.50 1.50149
194.00 1.49935
194.50 1.49728
195.00 1.49529
195.50 1.49336
196.00 1.49146
196.50 1.48944
197.00 1.48772
197.50 1.48384
198.00 1.47975
198.50 1.47571
199.00 1.47173
199.50 1.46780
200.00 1.46392
200.50 1.46077
201.00 1.45909
201.50 1.45363
202.00 1.44598
202.50 1.43833
203.00 1.43045
203.50 1.42260
204.00 1.41478
204.50 1.40526
205.00 1.39385
205.50 1.38247
206.00 1.37064
206.50 1.35756
207.00 1.34452
207.50 1.33187
208.00 1.31925
208.50 1.30653
209.00 1.29346
209.50 1.28038
210.00 1.26560
210.50 1.25086
211.00 1.23614
211.50 1.22145
212.00 1.20720
212.50 1.19428
213.00 1.18138
213.50 1.16517
214.00 1.14818
214.50 1.13120
215.00 1.11422
215.50 1.09705
216.00 1.07975
216.50 1.06213
217.00 1.04452
217.50 1.02665
218.00 1.00772
218.50 0.98880
219.00 0.96989
219.50 0.95079
220.00 0.93253
220.50 0.91430
221.00 0.89612
221.50 0.87796
222.00 0.86034
222.50 0.84349
223.00 0.82615
223.50 0.80875
224.00 0.79158
224.50 0.77457
225.00 0.75751
225.50 0.74071
226.00 0.72400
226.50 0.70717
227.00 0.69000
227.50 0.67282
228.00 0.65577
228.50 0.63879
229.00 0.62156
229.50 0.60429
230.00 0.58772
230.50 0.57156
231.00 0.55358
231.50 0.53528
232.00 0.51694
232.50 0.50127
233.00 0.48553
233.50 0.46941
234.00 0.45289
234.50 0.43631
235.00 0.41938
235.50 0.40111
236.00 0.38275
236.50 0.36431
237.00 0.34528
237.50 0.32596
238.00 0.30656
238.50 0.28709
239.00 0.26754
239.50 0.24951
240.00 0.23206
240.50 0.21457
241.00 0.19702
241.50 0.17943
242.00 0.16585
242.50 0.15368
243.00 0.14148
243.50 0.12925
244.00 0.11633
244.50 0.10284
245.00 0.08933
245.50 0.07916
246.00 0.07233
246.50 0.06549
247.00 0.05939
247.50 0.05361
248.00 0.04784
248.50 0.04207
249.00 0.03691
249.50 0.03355
250.00 0.03018
250.50 0.02681
251.00 0.02396
251.50 0.02169
252.00 0.01942
252.50 0.01715
253.00 0.01540
253.50 0.01390
254.00 0.01240
254.50 0.01090
255.00 0.00990
255.50 0.00902
256.00 0.00814
256.50 0.00726
257.00 0.00641
257.50 0.00568
258.00 0.00495
258.50 0.00453
259.00 0.00415
259.50 0.00378
260.00 0.00343
260.50 0.00307
261.00 0.00271
261.50 0.00236
262.00 0.00213
262.50 0.00195
263.00 0.00176
263.50 0.00158
264.00 0.00143
264.50 0.00128
265.00 0.00114
265.50 0.00107
266.00 0.00100
266.50 0.00093
267.00 0.00086
267.50 0.00079
268.00 0.00075
268.50 0.00073
269.00 0.00070
269.50 0.00067
270.00 0.00064
270.00 0.00064
270.50 0.00067
271.00 0.00070
271.50 0.00073
272.00 0.00075
272.50 0.00079
273.00 0.00086
273.50 0.00093
274.00 0.00100
274.50 0.00107
275.00 0.00114
275.50 0.00128
276.00 0.00143
276.50 0.00158
277.00 0.00176
277.50 0.00195
278.00 0.00213
278.50 0.00236
279.00 0.00271
279.50 0.00307
280.00 0.00343
280.50 0.00378
281.00 0.00415
281.50 0.00453
282.00 0.00495
282.50 0.00568
283.00 0.00641
283.50 0.00726
284.00 0.00814
284.50 0.00902
285.00 0.00990
285.50 0.01090
286.00 0.01240
286.50 0.01390
287.00 0.01540
287.50 0.01715
288.00 0.01942
288.50 0.02169
289.00 0.02396
289.50 0.02681
290.00 0.03018
290.50 0.03355
291.00 0.03691
291.50 0.04207
292.00 0.04784
292.50 0.05361
293.00 0.05939
293.50 0.06549
294.00 0.07233
294.50 0.07916
295.00 0.08933
295.50 0.10284
296.00 0.11633
296.50 0.12925
297.00 0.14148
297.50 0.15368
298.00 0.16585
298.50 0.17943
299.00 0.19702
299.50 0.21457
300.00 0.23206
300.50 0.24951
301.00 0.26754
301.50 0.28709
302.00 0.30656
302.50 0.32596
303.00 0.34528
303.50 0.36431
304.00 0.38275
304.50 0.40111
305.00 0.41938
305.50 0.43631
306.00 0.45289
306.50 0.46941
307.00 0.48553
307.50 0.50127
308.00 0.51694
308.50 0.53528
309.00 0.55358
309.50 0.57156
310.00 0.58772
310.50 0.60429
311.00 0.62156
311.50 0.63879
312.00 0.65577
312.50 0.67282
313.00 0.69000
313.50 0.70717
314.00 0.72400
314.50 0.74071
315.00 0.75751
315.50 0.77457
316.00 0.79158
316.50 0.80875
317.00 0.82615
317.50 0.84349
318.00 0.86034
318.50 0.87796
319.00 0.89612
319.50 0.91430
320.00 0.93253
320.50 0.95079
321.00 0.96989
321.50 0.98880
322.00 1.00772
322.50 1.02665
323.00 1.04452
323.50 1.06213
324.00 1.07975
324.50 1.09705
325.00 1.11422
325.50 1.13120
326.00 1.14818
326.50 1.16517
327.00 1.18138
327.50 1.19428
328.00 1.20720
328.50 1.22145
329.00 1.23614
329.50 1.25086
330.00 1.26560
330.50 1.28038
331.00 1.29346
331.50 1.30653
332.00 1.31925
332.50 1.33187
333.00 1.34452
333.50 1.35756
334.00 1.37064
334.50 1.38247
335.00 1.39385
335.50 1.40526
336.00 1.41478
336.50 1.42260
337.00 1.43045
337.50 1.43833
338.00 1.44598
338.50 1.45363
339.00 1.45909
339.50 1.46077
340.00 1.46392
340.50 1.46780
341.00 1.47173
341.50 1.47571
342.00 1.47975
342.50 1.48384
343.00 1.48772
343.50 1.48944
344.00 1.49146
344.50 1.49336
345.00 1.49529
345.50 1.49728
346.00 1.49935
346.50 1.50149
347.00 1.50371
347.50 1.50545
348.00 1.50635
348.50 1.50610
349.00 1.50469
349.50 1.50337
350.00 1.50355
350.50 1.50394
351.00 1.50336
351.50 1.50172
352.00 1.50019
352.50 1.49877
353.00 1.49793
353.50 1.49719
354.00 1.49657
354.50 1.49535
355.00 1.49423
355.50 1.49335
356.00 1.49277
356.50 1.49231
357.00 1.49196
357.50 1.49172
358.00 1.49161
358.50 1.49161
359.00 1.49173
359.50 1.49195
360.00 1.49230
