phi[deg] B[T]
0.00 1.73927
0.50 1.73879
1.00 1.73844
1.50 1.73823
2.00 1.73815
2.50 1.73811
3.00 1.73820
3.50 1.73843
4.00 1.73880
4.50 1.73920
5.00 1.73971
5.50 1.74052
6.00 1.74186
6.50 1.74334
7.00 1.74444
7.50 1.74527
8.00 1.74623
8.50 1.74731
9.00 1.74892
9.50 1.75186
10.00 1.75387
10.50 1.75510
11.00 1.75504
11.50 1.75508
12.00 1.75522
12.50 1.75546
13.00 1.75442
13.50 1.75288
14.00 1.75104
14.50 1.74830
15.00 1.74567
15.50 1.74313
16.00 1.74070
16.50 1.73851
17.00 1.73650
17.50 1.73473
18.00 1.73115
18.50 1.72705
19.00 1.72302
19.50 1.71907
20.00 1.71561
20.50 1.71327
21.00 1.71101
21.50 1.70299
22.00 1.69368
22.50 1.68440
23.00 1.67517
23.50 1.66672
24.00 1.66042
24.50 1.64655
25.00 1.63037
25.50 1.61559
26.00 1.60085
26.50 1.58615
27.00 1.57148
27.50 1.55534
28.00 1.53799
28.50 1.52059
29.00 1.50273
29.50 1.48493
30.00 1.46719
30.50 1.44950
31.00 1.43217
31.50 1.41627
32.00 1.40056
32.50 1.38157
33.00 1.36196
33.50 1.34237
34.00 1.32279
34.50 1.30323
35.00 1.28385
35.50 1.26514
36.00 1.24315
36.50 1.21942
37.00 1.19647
37.50 1.17401
38.00 1.15157
38.50 1.12814
39.00 1.10474
39.50 1.08143
40.00 1.05844
40.50 1.03593
41.00 1.01355
41.50 0.99166
42.00 0.97006
42.50 0.94856
43.00 0.92821
43.50 0.90790
44.00 0.88797
44.50 0.86851
45.00 0.84936
45.50 0.83139
46.00 0.81312
46.50 0.79572
47.00 0.77907
47.50 0.76250
48.00 0.74685
48.50 0.73131
49.00 0.71728
49.50 0.70325
50.00 0.68564
50.50 0.67155
51.00 0.65872
51.50 0.64425
52.00 0.62769
52.50 0.61108
53.00 0.59441
53.50 0.57562
54.00 0.55813
54.50 0.54100
55.00 0.52372
55.50 0.50628
56.00 0.48715
56.50 0.46755
57.00 0.44393
57.50 0.42014
58.00 0.39617
58.50 0.37193
59.00 0.34291
59.50 0.31374
60.00 0.28997
60.50 0.26706
61.00 0.24403
61.50 0.22090
62.00 0.19513
62.50 0.16760
63.00 0.14929
63.50 0.13270
64.00 0.11918
64.50 0.10565
65.00 0.09213
65.50 0.07964
66.00 0.07105
66.50 0.06244
67.00 0.05381
67.50 0.04725
68.00 0.04087
68.50 0.03586
69.00 0.03236
69.50 0.02884
70.00 0.02533
70.50 0.02181
71.00 0.01846
71.50 0.01640
72.00 0.01477
72.50 0.01316
73.00 0.01155
73.50 0.00994
74.00 0.00836
74.50 0.00751
75.00 0.00666
75.50 0.00582
76.00 0.00508
76.50 0.00436
77.00 0.00388
77.50 0.00349
78.00 0.00311
78.50 0.00274
79.00 0.00237
79.50 0.00202
80.00 0.00182
80.50 0.00162
81.00 0.00142
81.50 0.00127
82.00 0.00113
82.50 0.00098
83.00 0.00088
83.50 0.00078
84.00 0.00068
84.50 0.00062
85.00 0.00056
85.50 0.00050
86.00 0.00045
86.50 0.00041
87.00 0.00038
87.50 0.00035
88.00 0.00032
88.50 0.00030
89.00 0.00029
89.50 0.00028
90.00 0.00027
90.00 0.00027
90.50 0.00028
91.00 0.00029
91.50 0.00030
92.00 0.00032
92.50 0.00035
93.00 0.00038
93.50 0.00041
94.00 0.00045
94.50 0.00050
95.00 0.00056
95.50 0.00062
96.00 0.00068
96.50 0.00078
97.00 0.00088
97.50 0.00098
98.00 0.00113
98.50 0.00127
99.00 0.00142
99.50 0.00162
100.00 0.00182
100.50 0.00202
101.00 0.00237
101.50 0.00274
102.00 0.00311
102.50 0.00349
103.00 0.00388
103.50 0.00436
104.00 0.00508
104.50 0.00582
105.00 0.00666
105.50 0.00751
106.00 0.00836
106.50 0.00994
107.00 0.01155
107.50 0.01316
108.00 0.01477
108.50 0.01640
109.00 0.01846
109.50 0.02181
110.00 0.02533
110.50 0.02884
111.00 0.03236
111.50 0.03586
112.00 0.04087
112.50 0.04725
113.00 0.05381
113.50 0.06244
114.00 0.07105
114.50 0.07964
115.00 0.09213
115.50 0.10565
116.00 0.11918
116.50 0.13270
117.00 0.14929
117.50 0.16760
118.00 0.19513
118.50 0.22090
119.00 0.24403
119.50 0.26706
120.00 0.28997
120.50 0.31374
121.00 0.34291
121.50 0.37193
122.00 0.39617
122.50 0.42014
123.00 0.44393
123.50 0.46755
124.00 0.48715
124.50 0.50628
125.00 0.52372
125.50 0.54100
126.00 0.55813
126.50 0.57562
127.00 0.59441
127.50 0.61108
128.00 0.62769
128.50 0.64425
129.00 0.65872
129.50 0.67155
130.00 0.68564
130.50 0.70325
131.00 0.71728
131.50 0.73131
132.00 0.74685
132.50 0.76250
133.00 0.77907
133.50 0.79572
134.00 0.81312
134.50 0.83139
135.00 0.84936
135.50 0.86851
136.00 0.88797
136.50 0.90790
137.00 0.92821
137.50 0.94856
138.00 0.97006
138.50 0.99166
139.00 1.01355
139.50 1.03593
140.00 1.05844
140.50 1.08143
141.00 1.10474
141.50 1.12814
142.00 1.15157
142.50 1.17401
143.00 1.19647
143.50 1.21942
144.00 1.24315
144.50 1.26514
145.00 1.28385
145.50 1.30323
146.00 1.32279
146.50 1.34237
147.00 1.36196
147.50 1.38157
148.00 1.40056
148.50 1.41627
149.00 1.43217
149.50 1.44950
150.00 1.46719
150.50 1.48493
151.00 1.50273
151.50 1.52059
152.00 1.53799
152.50 1.55534
153.00 1.57148
153.50 1.58615
154.00 1.60085
154.50 1.61559
155.00 1.63037
155.50 1.64655
156.00 1.66042
156.50 1.66672
157.00 1.67517
157.50 1.68440
158.00 1.69368
158.50 1.70299
159.00 1.71101
159.50 1.71327
160.00 1.71561
160.50 1.71907
161.00 1.72302
161.50 1.72705
162.00 1.73115
162.50 1.73473
163.00 1.73650
163.50 1.73851
164.00 1.74070
164.50 1.74313
165.00 1.74567
165.50 1.74830
166.00 1.75104
166.50 1.75288
167.00 1.75442
167.50 1.75546
168.00 1.75522
168.50 1.75508
169.00 1.75504
169.50 1.75510
170.00 1.75387
170.50 1.75186
171.00 1.74892
171.50 1.74731
172.00 1.74623
172.50 1.74527
173.00 1.74444
173.50 1.74334
174.00 1.74186
174.50 1.74052
175.00 1.73971
175.50 1.73920
176.00 1.73880
176.50 1.73843
177.00 1.73820
177.50 1.73811
178.00 1.73815
178.50 1.73823
179.00 1.73844
179.50 1.73879
180.00 1.73927
180.00 1.73927
180.50 1.73879
181.00 1.73844
181.50 1.73823
182.00 1.73815
182.50 1.73811
183.00 1.73820
183.50 1.73843
184.00 1.73880
184.50 1.73920
185.00 1.73971
185.50 1.74052
186.00 1.74186
186.50 1.74334
187.00 1.74444
187.50 1.74527
188.00 1.74623
188.50 1.74731
189.00 1.74892
189.50 1.75186
190.00 1.75387
190.50 1.75510
191.00 1.75504
191.50 1.75508
192.00 1.75522
192.50 1.75546
193.00 1.75442
193.50 1.75288
194.00 1.75104
194.50 1.74830
195.00 1.74567
195.50 1.74313
196.00 1.74070
196.50 1.73851
197.00 1.73650
197.50 1.73473
198.00 1.73115
198.50 1.72705
199.00 1.72302
199.50 1.71907
200.00 1.71561
200.50 1.71327
201.00 1.71101
201.50 1.70299
202.00 1.69368
202.50 1.68440
203.00 1.67517
203.50 1.66672
204.00 1.66042
204.50 1.64655
205.00 1.63037
205.50 1.61559
206.00 1.60085
206.50 1.58615
207.00 1.57148
207.50 1.55534
208.00 1.53799
208.50 1.52059
209.00 1.50273
209.50 1.48493
210.00 1.46719
210.50 1.44950
211.00 1.43217
211.50 1.41627
212.00 1.40056
212.50 1.38157
213.00 1.36196
213.50 1.34237
214.00 1.32279
214.50 1.30323
215.00 1.28385
215.50 1.26514
216.00 1.24315
216.50 1.21942
217.00 1.19647
217.50 1.17401
218.00 1.15157
218.50 1.12814
219.00 1.10474
219.50 1.08143
220.00 1.05844
220.50 1.03593
221.00 1.01355
221.50 0.99166
222.00 0.97006
222.50 0.94856
223.00 0.92821
223.50 0.90790
224.00 0.88797
224.50 0.86851
225.00 0.84936
225.50 0.83139
226.00 0.81312
226.50 0.79572
227.00 0.77907
227.50 0.76250
228.00 0.74685
228.50 0.73131
229.00 0.71728
229.50 0.70325
230.00 0.68564
230.50 0.67155
231.00 0.65872
231.50 0.64425
232.00 0.62769
232.50 0.61108
233.00 0.59441
233.50 0.57562
234.00 0.55813
234.50 0.54100
235.00 0.52372
235.50 0.50628
236.00 0.48715
236.50 0.46755
237.00 0.44393
237.50 0.42014
238.00 0.39617
238.50 0.37193
239.00 0.34291
239.50 0.31374
240.00 0.28997
240.50 0.26706
241.00 0.24403
241.50 0.22090
242.00 0.19513
242.50 0.16760
243.00 0.14929
243.50 0.13270
244.00 0.11918
244.50 0.10565
245.00 0.09213
245.50 0.07964
246.00 0.07105
246.50 0.06244
247.00 0.05381
247.50 0.04725
248.00 0.04087
248.50 0.03586
249.00 0.03236
249.50 0.02884
250.00 0.02533
250.50 0.02181
251.00 0.01846
251.50 0.01640
252.00 0.01477
252.50 0.01316
253.00 0.01155
253.50 0.00994
254.00 0.00836
254.50 0.00751
255.00 0.00666
255.50 0.00582
256.00 0.00508
256.50 0.00436
257.00 0.00388
257.50 0.00349
258.00 0.00311
258.50 0.00274
259.00 0.00237
259.50 0.00202
260.00 0.00182
260.50 0.00162
261.00 0.00142
261.50 0.00127
262.00 0.00113
262.50 0.00098
263.00 0.00088
263.50 0.00078
264.00 0.00068
264.50 0.00062
265.00 0.00056
265.50 0.00050
266.00 0.00045
266.50 0.00041
267.00 0.00038
267.50 0.00035
268.00 0.00032
268.50 0.00030
269.00 0.00029
269.50 0.00028
270.00 0.00027
270.00 0.00027
270.50 0.00028
271.00 0.00029
271.50 0.00030
272.00 0.00032
272.50 0.00035
273.00 0.00038
273.50 0.00041
274.00 0.00045
274.50 0.00050
275.00 0.00056
275.50 0.00062
276.00 0.00068
276.50 0.00078
277.00 0.00088
277.50 0.00098
278.00 0.00113
278.50 0.00127
279.00 0.00142
279.50 0.00162
280.00 0.00182
280.50 0.00202
281.00 0.00237
281.50 0.00274
282.00 0.00311
282.50 0.00349
283.00 0.00388
283.50 0.00436
284.00 0.00508
284.50 0.00582
285.00 0.00666
285.50 0.00751
286.00 0.00836
286.50 0.00994
287.00 0.01155
287.50 0.01316
288.00 0.01477
288.50 0.01640
289.00 0.01846
289.50 0.02181
290.00 0.02533
290.50 0.02884
291.00 0.03236
291.50 0.03586
292.00 0.04087
292.50 0.04725
293.00 0.05381
293.50 0.06244
294.00 0.07105
294.50 0.07964
295.00 0.09213
295.50 0.10565
296.00 0.11918
296.50 0.13270
297.00 0.14929
297.50 0.16760
298.00 0.19513
298.50 0.22090
299.00 0.24403
299.50 0.26706
300.00 0.28997
300.50 0.31374
301.00 0.34291
301.50 0.37193
302.00 0.39617
302.50 0.42014
303.00 0.44393
303.50 0.46755
304.00 0.48715
304.50 0.50628
305.00 0.52372
305.50 0.54100
306.00 0.55813
306.50 0.57562
307.00 0.59441
307.50 0.61108
308.00 0.62769
308.50 0.64425
309.00 0.65872
309.50 0.67155
310.00 0.68564
310.50 0.70325
311.00 0.71728
311.50 0.73131
312.00 0.74685
312.50 0.76250
313.00 0.77907
313.50 0.79572
314.00 0.81312
314.50 0.83139
315.00 0.84936
315.50 0.86851
316.00 0.88797
316.50 0.90790
317.00 0.92821
317.50 0.94856
318.00 0.97006
318.50 0.99166
319.00 1.01355
319.50 1.03593
320.00 1.05844
320.50 1.08143
321.00 1.10474
321.50 1.12814
322.00 1.15157
322.50 1.17401
323.00 1.19647
323.50 1.21942
324.00 1.24315
324.50 1.26514
325.00 1.28385
325.50 1.30323
326.00 1.32279
326.50 1.34237
327.00 1.36196
327.50 1.38157
328.00 1.40056
328.50 1.41627
329.00 1.43217
329.50 1.44950
330.00 1.46719
330.50 1.48493
331.00 1.50273
331.50 1.52059
332.00 1.53799
332.50 1.55534
333.00 1.57148
333.50 1.58615
334.00 1.60085
334.50 1.61559
335.00 1.63037
335.50 1.64655
336.00 1.66042
336.50 1.66672
337.00 1.67517
337.50 1.68440
338.00 1.69368
338.50 1.70299
339.00 1.71101
339.50 1.71327
340.00 1.71561
340.50 1.71907
341.00 1.72302
341.50 1.72705
342.00 1.73115
342.50 1.73473
343.00 1.73650
343.50 1.73851
344.00 1.74070
344.50 1.74313
345.00 1.74567
345.50 1.74830
346.00 1.75104
346.50 1.75288
347.00 1.75442
347.50 1.75546
348.00 1.75522
348.50 1.75508
349.00 1.75504
349.50 1.75510
350.00 1.75387
350.50 1.75186
351.00 1.74892
351.50 1.74731
352.00 1.74623
352.50 1.74527
353.00 1.74444
353.50 1.74334
354.00 1.74186
354.50 1.74052
355.00 1.73971
355.50 1.73920
356.00 1.73880
356.50 1.73843
357.00 1.73820
357.50 1.73811
358.00 1.73815
358.50 1.73823
359.00 1.73844
359.50 1.73879
360.00 1.73927
