phi[deg] B[T]
0.00 1.72700
0.50 1.72654
1.00 1.72621
1.50 1.72602
2.00 1.72596
2.50 1.72595
3.00 1.72607
3.50 1.72634
4.00 1.72674
4.50 1.72715
5.00 1.72769
5.50 1.72857
6.00 1.72994
6.50 1.73144
7.00 1.73250
7.50 1.73332
8.00 1.73426
8.50 1.73534
9.00 1.73703
9.50 1.73997
10.00 1.74192
10.50 1.74313
11.00 1.74302
11.50 1.74300
12.00 1.74308
12.50 1.74325
13.00 1.74209
13.50 1.74044
14.00 1.73851
14.50 1.73564
15.00 1.73287
15.50 1.73019
16.00 1.72761
16.50 1.72523
17.00 1.72306
17.50 1.72119
18.00 1.71733
18.50 1.71320
19.00 1.70913
19.50 1.70515
20.00 1.70154
20.50 1.69919
21.00 1.69691
21.50 1.68875
22.00 1.67969
22.50 1.67067
23.00 1.66169
23.50 1.65336
24.00 1.64711
24.50 1.63356
25.00 1.61771
25.50 1.60319
26.00 1.58870
26.50 1.57425
27.00 1.55984
27.50 1.54411
28.00 1.52712
28.50 1.51008
29.00 1.49255
29.50 1.47507
30.00 1.45766
30.50 1.44030
31.00 1.42328
31.50 1.40770
32.00 1.39238
32.50 1.37317
33.00 1.35397
33.50 1.33479
34.00 1.31563
34.50 1.29648
35.00 1.27765
35.50 1.25956
36.00 1.23721
36.50 1.21389
37.00 1.19162
37.50 1.16942
38.00 1.14719
38.50 1.12411
39.00 1.10107
39.50 1.07811
40.00 1.05520
40.50 1.03234
41.00 1.00974
41.50 0.98807
42.00 0.96646
42.50 0.94488
43.00 0.92422
43.50 0.90386
44.00 0.88379
44.50 0.86419
45.00 0.84485
45.50 0.82677
46.00 0.80843
46.50 0.79088
47.00 0.77447
47.50 0.75808
48.00 0.74268
48.50 0.72811
49.00 0.71355
49.50 0.69667
50.00 0.68136
50.50 0.66912
51.00 0.65656
51.50 0.64082
52.00 0.62503
52.50 0.60920
53.00 0.59324
53.50 0.57395
54.00 0.55712
54.50 0.54012
55.00 0.52297
55.50 0.50565
56.00 0.48685
56.50 0.46720
57.00 0.44416
57.50 0.42095
58.00 0.39757
58.50 0.37261
59.00 0.34348
59.50 0.31421
60.00 0.29069
60.50 0.26772
61.00 0.24465
61.50 0.22147
62.00 0.19517
62.50 0.16866
63.00 0.15021
63.50 0.13331
64.00 0.11942
64.50 0.10553
65.00 0.09163
65.50 0.07992
66.00 0.07128
66.50 0.06262
67.00 0.05421
67.50 0.04765
68.00 0.04110
68.50 0.03585
69.00 0.03234
69.50 0.02882
70.00 0.02530
70.50 0.02177
71.00 0.01849
71.50 0.01646
72.00 0.01480
72.50 0.01317
73.00 0.01154
73.50 0.00990
74.00 0.00840
74.50 0.00755
75.00 0.00669
75.50 0.00584
76.00 0.00510
76.50 0.00437
77.00 0.00388
77.50 0.00349
78.00 0.00312
78.50 0.00275
79.00 0.00238
79.50 0.00201
80.00 0.00181
80.50 0.00161
81.00 0.00142
81.50 0.00126
82.00 0.00112
82.50 0.00098
83.00 0.00087
83.50 0.00077
84.00 0.00068
84.50 0.00062
85.00 0.00056
85.50 0.00050
86.00 0.00044
86.50 0.00039
87.00 0.00036
87.50 0.00034
88.00 0.00031
88.50 0.00029
89.00 0.00027
89.50 0.00026
90.00 0.00025
90.00 0.00025
90.50 0.00026
91.00 0.00027
91.50 0.00029
92.00 0.00031
92.50 0.00034
93.00 0.00036
93.50 0.00039
94.00 0.00044
94.50 0.00050
95.00 0.00056
95.50 0.00062
96.00 0.00068
96.50 0.00077
97.00 0.00087
97.50 0.00098
98.00 0.00112
98.50 0.00126
99.00 0.00142
99.50 0.00161
100.00 0.00181
100.50 0.00201
101.00 0.00238
101.50 0.00275
102.00 0.00312
102.50 0.00349
103.00 0.00388
103.50 0.00437
104.00 0.00510
104.50 0.00584
105.00 0.00669
105.50 0.00755
106.00 0.00840
106.50 0.00990
107.00 0.01154
107.50 0.01317
108.00 0.01480
108.50 0.01646
109.00 0.01849
109.50 0.02177
110.00 0.02530
110.50 0.02882
111.00 0.03234
111.50 0.03585
112.00 0.04110
112.50 0.04765
113.00 0.05421
113.50 0.06262
114.00 0.07128
114.50 0.07992
115.00 0.09163
115.50 0.10553
116.00 0.11942
116.50 0.13331
117.00 0.15021
117.50 0.16866
118.00 0.19517
118.50 0.22147
119.00 0.24465
119.50 0.26772
120.00 0.29069
120.50 0.31421
121.00 0.34348
121.50 0.37261
122.00 0.39757
122.50 0.42095
123.00 0.44416
123.50 0.46720
124.00 0.48685
124.50 0.50565
125.00 0.52297
125.50 0.54012
126.00 0.55712
126.50 0.57395
127.00 0.59324
127.50 0.60920
128.00 0.62503
128.50 0.64082
129.00 0.65656
129.50 0.66912
130.00 0.68136
130.50 0.69667
131.00 0.71355
131.50 0.72811
132.00 0.74268
132.50 0.75808
133.00 0.77447
133.50 0.79088
134.00 0.80843
134.50 0.82677
135.00 0.84485
135.50 0.86419
136.00 0.88379
136.50 0.90386
137.00 0.92422
137.50 0.94488
138.00 0.96646
138.50 0.98807
139.00 1.00974
139.50 1.03234
140.00 1.05520
140.50 1.07811
141.00 1.10107
141.50 1.12411
142.00 1.14719
142.50 1.16942
143.00 1.19162
143.50 1.21389
144.00 1.23721
144.50 1.25956
145.00 1.27765
145.50 1.29648
146.00 1.31563
146.50 1.33479
147.00 1.35397
147.50 1.37317
148.00 1.39238
148.50 1.40770
149.00 1.42328
149.50 1.44030
150.00 1.45766
150.50 1.47507
151.00 1.49255
151.50 1.51008
152.00 1.52712
152.50 1.54411
153.00 1.55984
153.50 1.57425
154.00 1.58870
154.50 1.60319
155.00 1.61771
155.50 1.63356
156.00 1.64711
156.50 1.65336
157.00 1.66169
157.50 1.67067
158.00 1.67969
158.50 1.68875
159.00 1.69691
159.50 1.69919
160.00 1.70154
160.50 1.70515
161.00 1.70913
161.50 1.71320
162.00 1.71733
162.50 1.72119
163.00 1.72306
163.50 1.72523
164.00 1.72761
164.50 1.73019
165.00 1.73287
165.50 1.73564
166.00 1.73851
166.50 1.74044
167.00 1.74209
167.50 1.74325
168.00 1.74308
168.50 1.74300
169.00 1.74302
169.50 1.74313
170.00 1.74192
170.50 1.73997
171.00 1.73703
171.50 1.73534
172.00 1.73426
172.50 1.73332
173.00 1.73250
173.50 1.73144
174.00 1.72994
174.50 1.72857
175.00 1.72769
175.50 1.72715
176.00 1.72674
176.50 1.72634
177.00 1.72607
177.50 1.72595
178.00 1.72596
178.50 1.72602
179.00 1.72621
179.50 1.72654
180.00 1.72700
180.00 1.72700
180.50 1.72654
181.00 1.72621
181.50 1.72602
182.00 1.72596
182.50 1.72595
183.00 1.72607
183.50 1.72634
184.00 1.72674
184.50 1.72715
185.00 1.72769
185.50 1.72857
186.00 1.72994
186.50 1.73144
187.00 1.73250
187.50 1.73332
188.00 1.73426
188.50 1.73534
189.00 1.73703
189.50 1.73997
190.00 1.74192
190.50 1.74313
191.00 1.74302
191.50 1.74300
192.00 1.74308
192.50 1.74325
193.00 1.74209
193.50 1.74044
194.00 1.73851
194.50 1.73564
195.00 1.73287
195.50 1.73019
196.00 1.72761
196.50 1.72523
197.00 1.72306
197.50 1.72119
198.00 1.71733
198.50 1.71320
199.00 1.70913
199.50 1.70515
200.00 1.70154
200.50 1.69919
201.00 1.69691
201.50 1.68875
202.00 1.67969
202.50 1.67067
203.00 1.66169
203.50 1.65336
204.00 1.64711
204.50 1.63356
205.00 1.61771
205.50 1.60319
206.00 1.58870
206.50 1.57425
207.00 1.55984
207.50 1.54411
208.00 1.52712
208.50 1.51008
209.00 1.49255
209.50 1.47507
210.00 1.45766
210.50 1.44030
211.00 1.42328
211.50 1.40770
212.00 1.39238
212.50 1.37317
213.00 1.35397
213.50 1.33479
214.00 1.31563
214.50 1.29648
215.00 1.27765
215.50 1.25956
216.00 1.23721
216.50 1.21389
217.00 1.19162
217.50 1.16942
218.00 1.14719
218.50 1.12411
219.00 1.10107
219.50 1.07811
220.00 1.05520
220.50 1.03234
221.00 1.00974
221.50 0.98807
222.00 0.96646
222.50 0.94488
223.00 0.92422
223.50 0.90386
224.00 0.88379
224.50 0.86419
225.00 0.84485
225.50 0.82677
226.00 0.80843
226.50 0.79088
227.00 0.77447
227.50 0.75808
228.00 0.74268
228.50 0.72811
229.00 0.71355
229.50 0.69667
230.00 0.68136
230.50 0.66912
231.00 0.65656
231.50 0.64082
232.00 0.62503
232.50 0.60920
233.00 0.59324
233.50 0.57395
234.00 0.55712
234.50 0.54012
235.00 0.52297
235.50 0.50565
236.00 0.48685
236.50 0.46720
237.00 0.44416
237.50 0.42095
238.00 0.39757
238.50 0.37261
239.00 0.34348
239.50 0.31421
240.00 0.29069
240.50 0.26772
241.00 0.24465
241.50 0.22147
242.00 0.19517
242.50 0.16866
243.00 0.15021
243.50 0.13331
244.00 0.11942
244.50 0.10553
245.00 0.09163
245.50 0.07992
246.00 0.07128
246.50 0.06262
247.00 0.05421
247.50 0.04765
248.00 0.04110
248.50 0.03585
249.00 0.03234
249.50 0.02882
250.00 0.02530
250.50 0.02177
251.00 0.01849
251.50 0.01646
252.00 0.01480
252.50 0.01317
253.00 0.01154
253.50 0.00990
254.00 0.00840
254.50 0.00755
255.00 0.00669
255.50 0.00584
256.00 0.00510
256.50 0.00437
257.00 0.00388
257.50 0.00349
258.00 0.00312
258.50 0.00275
259.00 0.00238
259.50 0.00201
260.00 0.00181
260.50 0.00161
261.00 0.00142
261.50 0.00126
262.00 0.00112
262.50 0.00098
263.00 0.00087
263.50 0.00077
264.00 0.00068
264.50 0.00062
265.00 0.00056
265.50 0.00050
266.00 0.00044
266.50 0.00039
267.00 0.00036
267.50 0.00034
268.00 0.00031
268.50 0.00029
269.00 0.00027
269.50 0.00026
270.00 0.00025
270.00 0.00025
270.50 0.00026
271.00 0.00027
271.50 0.00029
272.00 0.00031
272.50 0.00034
273.00 0.00036
273.50 0.00039
274.00 0.00044
274.50 0.00050
275.00 0.00056
275.50 0.00062
276.00 0.00068
276.50 0.00077
277.00 0.00087
277.50 0.00098
278.00 0.00112
278.50 0.00126
279.00 0.00142
279.50 0.00161
280.00 0.00181
280.50 0.00201
281.00 0.00238
281.50 0.00275
282.00 0.00312
282.50 0.00349
283.00 0.00388
283.50 0.00437
284.00 0.00510
284.50 0.00584
285.00 0.00669
285.50 0.00755
286.00 0.00840
286.50 0.00990
287.00 0.01154
287.50 0.01317
288.00 0.01480
288.50 0.01646
289.00 0.01849
289.50 0.02177
290.00 0.02530
290.50 0.02882
291.00 0.03234
291.50 0.03585
292.00 0.04110
292.50 0.04765
293.00 0.05421
293.50 0.06262
294.00 0.07128
294.50 0.07992
295.00 0.09163
295.50 0.10553
296.00 0.11942
296.50 0.13331
297.00 0.15021
297.50 0.16866
298.00 0.19517
298.50 0.22147
299.00 0.24465
299.50 0.26772
300.00 0.29069
300.50 0.31421
301.00 0.34348
301.50 0.37261
302.00 0.39757
302.50 0.42095
303.00 0.44416
303.50 0.46720
304.00 0.48685
304.50 0.50565
305.00 0.52297
305.50 0.54012
306.00 0.55712
306.50 0.57395
307.00 0.59324
307.50 0.60920
308.00 0.62503
308.50 0.64082
309.00 0.65656
309.50 0.66912
310.00 0.68136
310.50 0.69667
311.00 0.71355
311.50 0.72811
312.00 0.74268
312.50 0.75808
313.00 0.77447
313.50 0.79088
314.00 0.80843
314.50 0.82677
315.00 0.84485
315.50 0.86419
316.00 0.88379
316.50 0.90386
317.00 0.92422
317.50 0.94488
318.00 0.96646
318.50 0.98807
319.00 1.00974
319.50 1.03234
320.00 1.05520
320.50 1.07811
321.00 1.10107
321.50 1.12411
322.00 1.14719
322.50 1.16942
323.00 1.19162
323.50 1.21389
324.00 1.23721
324.50 1.25956
325.00 1.27765
325.50 1.29648
326.00 1.31563
326.50 1.33479
327.00 1.35397
327.50 1.37317
328.00 1.39238
328.50 1.40770
329.00 1.42328
329.50 1.44030
330.00 1.45766
330.50 1.47507
331.00 1.49255
331.50 1.51008
332.00 1.52712
332.50 1.54411
333.00 1.55984
333.50 1.57425
334.00 1.58870
334.50 1.60319
335.00 1.61771
335.50 1.63356
336.00 1.64711
336.50 1.65336
337.00 1.66169
337.50 1.67067
338.00 1.67969
338.50 1.68875
339.00 1.69691
339.50 1.69919
340.00 1.70154
340.50 1.70515
341.00 1.70913
341.50 1.71320
342.00 1.71733
342.50 1.72119
343.00 1.72306
343.50 1.72523
344.00 1.72761
344.50 1.73019
345.00 1.73287
345.50 1.73564
346.00 1.73851
346.50 1.74044
347.00 1.74209
347.50 1.74325
348.00 1.74308
348.50 1.74300
349.00 1.74302
349.50 1.74313
350.00 1.74192
350.50 1.73997
351.00 1.73703
351.50 1.73534
352.00 1.73426
352.50 1.73332
353.00 1.73250
353.50 1.73144
354.00 1.72994
354.50 1.72857
355.00 1.72769
355.50 1.72715
356.00 1.72674
356.50 1.72634
357.00 1.72607
357.50 1.72595
358.00 1.72596
358.50 1.72602
359.00 1.72621
359.50 1.72654
360.00 1.72700
