phi[deg] B[T]
0.00 1.25041
0.50 1.24911
1.00 1.24788
1.50 1.24669
2.00 1.24473
2.50 1.24286
3.00 1.24091
3.50 1.23903
4.00 1.23732
4.50 1.23620
5.00 1.23517
5.50 1.23423
6.00 1.23376
6.50 1.23406
7.00 1.23484
7.50 1.23572
8.00 1.23662
8.50 1.23748
9.00 1.23967
9.50 1.24222
10.00 1.24394
10.50 1.24504
11.00 1.24621
11.50 1.24746
12.00 1.24969
12.50 1.24881
13.00 1.24836
13.50 1.24798
14.00 1.24766
14.50 1.24660
15.00 1.24535
15.50 1.24480
16.00 1.24432
16.50 1.24390
17.00 1.24454
17.50 1.24519
18.00 1.24571
18.50 1.24713
19.00 1.24873
19.50 1.25113
20.00 1.25299
20.50 1.25438
21.00 1.25590
21.50 1.25744
22.00 1.25901
22.50 1.25641
23.00 1.25318
23.50 1.24987
24.00 1.24647
24.50 1.24152
25.00 1.22924
25.50 1.21813
26.00 1.20701
26.50 1.19576
27.00 1.18322
27.50 1.17017
28.00 1.15584
28.50 1.14239
29.00 1.12955
29.50 1.11729
30.00 1.10506
30.50 1.09373
31.00 1.08254
31.50 1.07111
32.00 1.05936
32.50 1.04853
33.00 1.03805
33.50 1.02760
34.00 1.01602
34.50 1.00285
35.00 0.99053
35.50 0.97893
36.00 0.96717
36.50 0.95142
37.00 0.93566
37.50 0.92018
38.00 0.90420
38.50 0.88684
39.00 0.86973
39.50 0.85263
40.00 0.83374
40.50 0.81428
41.00 0.79527
41.50 0.77475
42.00 0.75488
42.50 0.73319
43.00 0.71095
43.50 0.68754
44.00 0.66318
44.50 0.63829
45.00 0.61216
45.50 0.58444
46.00 0.55781
46.50 0.52978
47.00 0.50217
47.50 0.47748
48.00 0.45614
48.50 0.43652
49.00 0.42404
49.50 0.41075
50.00 0.40382
50.50 0.39974
51.00 0.39583
51.50 0.39053
52.00 0.38819
52.50 0.38691
53.00 0.38290
53.50 0.37793
54.00 0.37244
54.50 0.36191
55.00 0.34818
55.50 0.33587
56.00 0.32360
56.50 0.30136
57.00 0.27571
57.50 0.25209
58.00 0.23035
58.50 0.19669
59.00 0.16422
59.50 0.13275
60.00 0.10730
60.50 0.08611
61.00 0.06490
61.50 0.04368
62.00 0.03233
62.50 0.02542
63.00 0.01850
63.50 0.01157
64.00 0.00778
64.50 0.00581
65.00 0.00384
65.50 0.00224
66.00 0.00184
66.50 0.00143
67.00 0.00103
67.50 0.00096
68.00 0.00092
68.50 0.00091
69.00 0.00088
69.50 0.00085
70.00 0.00082
70.50 0.00081
71.00 0.00079
71.50 0.00077
72.00 0.00076
72.50 0.00074
73.00 0.00072
73.50 0.00071
74.00 0.00069
74.50 0.00067
75.00 0.00066
75.50 0.00064
76.00 0.00062
76.50 0.00060
77.00 0.00059
77.50 0.00057
78.00 0.00055
78.50 0.00053
79.00 0.00051
79.50 0.00049
80.00 0.00047
80.50 0.00045
81.00 0.00042
81.50 0.00040
82.00 0.00038
82.50 0.00036
83.00 0.00034
83.50 0.00032
84.00 0.00029
84.50 0.00027
85.00 0.00025
85.50 0.00022
86.00 0.00020
86.50 0.00018
87.00 0.00016
87.50 0.00014
88.00 0.00012
88.50 0.00010
89.00 0.00008
89.50 0.00007
90.00 0.00006
90.00 0.00006
90.50 0.00007
91.00 0.00008
91.50 0.00010
92.00 0.00012
92.50 0.00014
93.00 0.00016
93.50 0.00018
94.00 0.00020
94.50 0.00022
95.00 0.00025
95.50 0.00027
96.00 0.00029
96.50 0.00032
97.00 0.00034
97.50 0.00036
98.00 0.00038
98.50 0.00040
99.00 0.00042
99.50 0.00045
100.00 0.00047
100.50 0.00049
101.00 0.00051
101.50 0.00053
102.00 0.00055
102.50 0.00057
103.00 0.00059
103.50 0.00060
104.00 0.00062
104.50 0.00064
105.00 0.00066
105.50 0.00067
106.00 0.00069
106.50 0.00071
107.00 0.00072
107.50 0.00074
108.00 0.00076
108.50 0.00077
109.00 0.00079
109.50 0.00081
110.00 0.00082
110.50 0.00085
111.00 0.00088
111.50 0.00091
112.00 0.00092
112.50 0.00096
113.00 0.00103
113.50 0.00143
114.00 0.00184
114.50 0.00224
115.00 0.00384
115.50 0.00581
116.00 0.00778
116.50 0.01157
117.00 0.01850
117.50 0.02542
118.00 0.03233
118.50 0.04368
119.00 0.06490
119.50 0.08611
120.00 0.10730
120.50 0.13275
121.00 0.16422
121.50 0.19669
122.00 0.23035
122.50 0.25209
123.00 0.27571
123.50 0.30136
124.00 0.32360
124.50 0.33587
125.00 0.34818
125.50 0.36191
126.00 0.37244
126.50 0.37793
127.00 0.38290
127.50 0.38691
128.00 0.38819
128.50 0.39053
129.00 0.39583
129.50 0.39974
130.00 0.40382
130.50 0.41075
131.00 0.42404
131.50 0.43652
132.00 0.45614
132.50 0.47748
133.00 0.50217
133.50 0.52978
134.00 0.55781
134.50 0.58444
135.00 0.61216
135.50 0.63829
136.00 0.66318
136.50 0.68754
137.00 0.71095
137.50 0.73319
138.00 0.75488
138.50 0.77475
139.00 0.79527
139.50 0.81428
140.00 0.83374
140.50 0.85263
141.00 0.86973
141.50 0.88684
142.00 0.90420
142.50 0.92018
143.00 0.93566
143.50 0.95142
144.00 0.96717
144.50 0.97893
145.00 0.99053
145.50 1.00285
146.00 1.01602
146.50 1.02760
147.00 1.03805
147.50 1.04853
148.00 1.05936
148.50 1.07111
149.00 1.08254
149.50 1.09373
150.00 1.10506
150.50 1.11729
151.00 1.12955
151.50 1.14239
152.00 1.15584
152.50 1.17017
153.00 1.18322
153.50 1.19576
154.00 1.20701
154.50 1.21813
155.00 1.22924
155.50 1.24152
156.00 1.24647
156.50 1.24987
157.00 1.25318
157.50 1.25641
158.00 1.25901
158.50 1.25744
159.00 1.25590
159.50 1.25438
160.00 1.25299
160.50 1.25113
161.00 1.24873
161.50 1.24713
162.00 1.24571
162.50 1.24519
163.00 1.24454
163.50 1.24390
164.00 1.24432
164.50 1.24480
165.00 1.24535
165.50 1.24660
166.00 1.24766
166.50 1.24798
167.00 1.24836
167.50 1.24881
168.00 1.24969
168.50 1.24746
169.00 1.24621
169.50 1.24504
170.00 1.24394
170.50 1.24222
171.00 1.23967
171.50 1.23748
172.00 1.23662
172.50 1.23572
173.00 1.23484
173.50 1.23406
174.00 1.23376
174.50 1.23423
175.00 1.23517
175.50 1.23620
176.00 1.23732
176.50 1.23903
177.00 1.24091
177.50 1.24286
178.00 1.24473
178.50 1.24669
179.00 1.24788
179.50 1.24911
180.00 1.25041
180.00 1.25041
180.50 1.24911
181.00 1.24788
181.50 1.24669
182.00 1.24473
182.50 1.24286
183.00 1.24091
183.50 1.23903
184.00 1.23732
184.50 1.23620
185.00 1.23517
185.50 1.23423
186.00 1.23376
186.50 1.23406
187.00 1.23484
187.50 1.23572
188.00 1.23662
188.50 1.23748
189.00 1.23967
189.50 1.24222
190.00 1.24394
190.50 1.24504
191.00 1.24621
191.50 1.24746
192.00 1.24969
192.50 1.24881
193.00 1.24836
193.50 1.24798
194.00 1.24766
194.50 1.24660
195.00 1.24535
195.50 1.24480
196.00 1.24432
196.50 1.24390
197.00 1.24454
197.50 1.24519
198.00 1.24571
198.50 1.24713
199.00 1.24873
199.50 1.25113
200.00 1.25299
200.50 1.25438
201.00 1.25590
201.50 1.25744
202.00 1.25901
202.50 1.25641
203.00 1.25318
203.50 1.24987
204.00 1.24647
204.50 1.24152
205.00 1.22924
205.50 1.21813
206.00 1.20701
206.50 1.19576
207.00 1.18322
207.50 1.17017
208.00 1.15584
208.50 1.14239
209.00 1.12955
209.50 1.11729
210.00 1.10506
210.50 1.09373
211.00 1.08254
211.50 1.07111
212.00 1.05936
212.50 1.04853
213.00 1.03805
213.50 1.02760
214.00 1.01602
214.50 1.00285
215.00 0.99053
215.50 0.97893
216.00 0.96717
216.50 0.95142
217.00 0.93566
217.50 0.92018
218.00 0.90420
218.50 0.88684
219.00 0.86973
219.50 0.85263
220.00 0.83374
220.50 0.81428
221.00 0.79527
221.50 0.77475
222.00 0.75488
222.50 0.73319
223.00 0.71095
223.50 0.68754
224.00 0.66318
224.50 0.63829
225.00 0.61216
225.50 0.58444
226.00 0.55781
226.50 0.52978
227.00 0.50217
227.50 0.47748
228.00 0.45614
228.50 0.43652
229.00 0.42404
229.50 0.41075
230.00 0.40382
230.50 0.39974
231.00 0.39583
231.50 0.39053
232.00 0.38819
232.50 0.38691
233.00 0.38290
233.50 0.37793
234.00 0.37244
234.50 0.36191
235.00 0.34818
235.50 0.33587
236.00 0.32360
236.50 0.30136
237.00 0.27571
237.50 0.25209
238.00 0.23035
238.50 0.19669
239.00 0.16422
239.50 0.13275
240.00 0.10730
240.50 0.08611
241.00 0.06490
241.50 0.04368
242.00 0.03233
242.50 0.02542
243.00 0.01850
243.50 0.01157
244.00 0.00778
244.50 0.00581
245.00 0.00384
245.50 0.00224
246.00 0.00184
246.50 0.00143
247.00 0.00103
247.50 0.00096
248.00 0.00092
248.50 0.00091
249.00 0.00088
249.50 0.00085
250.00 0.00082
250.50 0.00081
251.00 0.00079
251.50 0.00077
252.00 0.00076
252.50 0.00074
253.00 0.00072
253.50 0.00071
254.00 0.00069
254.50 0.00067
255.00 0.00066
255.50 0.00064
256.00 0.00062
256.50 0.00060
257.00 0.00059
257.50 0.00057
258.00 0.00055
258.50 0.00053
259.00 0.00051
259.50 0.00049
260.00 0.00047
260.50 0.00045
261.00 0.00042
261.50 0.00040
262.00 0.00038
262.50 0.00036
263.00 0.00034
263.50 0.00032
264.00 0.00029
264.50 0.00027
265.00 0.00025
265.50 0.00022
266.00 0.00020
266.50 0.00018
267.00 0.00016
267.50 0.00014
268.00 0.00012
268.50 0.00010
269.00 0.00008
269.50 0.00007
270.00 0.00006
270.00 0.00006
270.50 0.00007
271.00 0.00008
271.50 0.00010
272.00 0.00012
272.50 0.00014
273.00 0.00016
273.50 0.00018
274.00 0.00020
274.50 0.00022
275.00 0.00025
275.50 0.00027
276.00 0.00029
276.50 0.00032
277.00 0.00034
277.50 0.00036
278.00 0.00038
278.50 0.00040
279.00 0.00042
279.50 0.00045
280.00 0.00047
280.50 0.00049
281.00 0.00051
281.50 0.00053
282.00 0.00055
282.50 0.00057
283.00 0.00059
283.50 0.00060
284.00 0.00062
284.50 0.00064
285.00 0.00066
285.50 0.00067
286.00 0.00069
286.50 0.00071
287.00 0.00072
287.50 0.00074
288.00 0.00076
288.50 0.00077
289.00 0.00079
289.50 0.00081
290.00 0.00082
290.50 0.00085
291.00 0.00088
291.50 0.00091
292.00 0.00092
292.50 0.00096
293.00 0.00103
293.50 0.00143
294.00 0.00184
294.50 0.00224
295.00 0.00384
295.50 0.00581
296.00 0.00778
296.50 0.01157
297.00 0.01850
297.50 0.02542
298.00 0.03233
298.50 0.04368
299.00 0.06490
299.50 0.08611
300.00 0.10730
300.50 0.13275
301.00 0.16422
301.50 0.19669
302.00 0.23035
302.50 0.25209
303.00 0.27571
303.50 0.30136
304.00 0.32360
304.50 0.33587
305.00 0.34818
305.50 0.36191
306.00 0.37244
306.50 0.37793
307.00 0.38290
307.50 0.38691
308.00 0.38819
308.50 0.39053
309.00 0.39583
309.50 0.39974
310.00 0.40382
310.50 0.41075
311.00 0.42404
311.50 0.43652
312.00 0.45614
312.50 0.47748
313.00 0.50217
313.50 0.52978
314.00 0.55781
314.50 0.58444
315.00 0.61216
315.50 0.63829
316.00 0.66318
316.50 0.68754
317.00 0.71095
317.50 0.73319
318.00 0.75488
318.50 0.77475
319.00 0.79527
319.50 0.81428
320.00 0.83374
320.50 0.85263
321.00 0.86973
321.50 0.88684
322.00 0.90420
322.50 0.92018
323.00 0.93566
323.50 0.95142
324.00 0.96717
324.50 0.97893
325.00 0.99053
325.50 1.00285
326.00 1.01602
326.50 1.02760
327.00 1.03805
327.50 1.04853
328.00 1.05936
328.50 1.07111
329.00 1.08254
329.50 1.09373
330.00 1.10506
330.50 1.11729
331.00 1.12955
331.50 1.14239
332.00 1.15584
332.50 1.17017
333.00 1.18322
333.50 1.19576
334.00 1.20701
334.50 1.21813
335.00 1.22924
335.50 1.24152
336.00 1.24647
336.50 1.24987
337.00 1.25318
337.50 1.25641
338.00 1.25901
338.50 1.25744
339.00 1.25590
339.50 1.25438
340.00 1.25299
340.50 1.25113
341.00 1.24873
341.50 1.24713
342.00 1.24571
342.50 1.24519
343.00 1.24454
343.50 1.24390
344.00 1.24432
344.50 1.24480
345.00 1.24535
345.50 1.24660
346.00 1.24766
346.50 1.24798
347.00 1.24836
347.50 1.24881
348.00 1.24969
348.50 1.24746
349.00 1.24621
349.50 1.24504
350.00 1.24394
350.50 1.24222
351.00 1.23967
351.50 1.23748
352.00 1.23662
352.50 1.23572
353.00 1.23484
353.50 1.23406
354.00 1.23376
354.50 1.23423
355.00 1.23517
355.50 1.23620
356.00 1.23732
356.50 1.23903
357.00 1.24091
357.50 1.24286
358.00 1.24473
358.50 1.24669
359.00 1.24788
359.50 1.24911
360.00 1.25041
