phi[deg] B[T]
0.00 1.35511
0.50 1.35463
1.00 1.35429
1.50 1.35399
2.00 1.35371
2.50 1.35347
3.00 1.35250
3.50 1.35110
4.00 1.34972
4.50 1.34837
5.00 1.34706
5.50 1.34562
6.00 1.34384
6.50 1.34229
7.00 1.34076
7.50 1.33924
8.00 1.33775
8.50 1.33639
9.00 1.33507
9.50 1.33429
10.00 1.33342
10.50 1.33254
11.00 1.33165
11.50 1.33075
12.00 1.32984
12.50 1.32979
13.00 1.33059
13.50 1.33115
14.00 1.33170
14.50 1.33223
15.00 1.33275
15.50 1.33450
16.00 1.33667
16.50 1.33883
17.00 1.34097
17.50 1.34310
18.00 1.34521
18.50 1.34730
19.00 1.34937
19.50 1.35142
20.00 1.35344
20.50 1.35543
21.00 1.35740
21.50 1.35934
22.00 1.36012
22.50 1.35973
23.00 1.35919
23.50 1.35864
24.00 1.35805
24.50 1.35714
25.00 1.35396
25.50 1.34973
26.00 1.34547
26.50 1.34137
27.00 1.33627
27.50 1.32886
28.00 1.32174
28.50 1.31457
29.00 1.30736
29.50 1.30003
30.00 1.28805
30.50 1.27336
31.00 1.25862
31.50 1.24381
32.00 1.22893
32.50 1.21400
33.00 1.19836
33.50 1.17813
34.00 1.15836
34.50 1.13847
35.00 1.11848
35.50 1.09837
36.00 1.07816
36.50 1.05478
37.00 1.02550
37.50 0.99611
38.00 0.96662
38.50 0.93703
39.00 0.90733
39.50 0.87791
40.00 0.84848
40.50 0.81891
41.00 0.78921
41.50 0.75938
42.00 0.72943
42.50 0.69488
43.00 0.65957
43.50 0.62415
44.00 0.58861
44.50 0.55296
45.00 0.51829
45.50 0.48839
46.00 0.46058
46.50 0.43271
47.00 0.40478
47.50 0.37680
48.00 0.35200
48.50 0.32872
49.00 0.30538
49.50 0.28198
50.00 0.25854
50.50 0.23768
51.00 0.22225
51.50 0.20729
52.00 0.19231
52.50 0.17725
53.00 0.16204
53.50 0.14684
54.00 0.13633
54.50 0.12698
55.00 0.11763
55.50 0.10827
56.00 0.09892
56.50 0.08956
57.00 0.08367
57.50 0.07846
58.00 0.07324
58.50 0.06803
59.00 0.06281
59.50 0.05778
60.00 0.05304
60.50 0.04831
61.00 0.04358
61.50 0.03985
62.00 0.03734
62.50 0.03483
63.00 0.03232
63.50 0.02981
64.00 0.02729
64.50 0.02489
65.00 0.02303
65.50 0.02118
66.00 0.01933
66.50 0.01756
67.00 0.01642
67.50 0.01529
68.00 0.01415
68.50 0.01301
69.00 0.01188
69.50 0.01092
70.00 0.01021
70.50 0.00949
71.00 0.00877
71.50 0.00806
72.00 0.00735
72.50 0.00676
73.00 0.00620
73.50 0.00564
74.00 0.00511
74.50 0.00482
75.00 0.00453
75.50 0.00424
76.00 0.00395
76.50 0.00366
77.00 0.00338
77.50 0.00309
78.00 0.00281
78.50 0.00253
79.00 0.00233
79.50 0.00219
80.00 0.00205
80.50 0.00191
81.00 0.00177
81.50 0.00163
82.00 0.00151
82.50 0.00139
83.00 0.00127
83.50 0.00117
84.00 0.00112
84.50 0.00106
85.00 0.00101
85.50 0.00096
86.00 0.00091
86.50 0.00086
87.00 0.00081
87.50 0.00079
88.00 0.00076
88.50 0.00074
89.00 0.00072
89.50 0.00070
90.00 0.00067
90.00 0.00067
90.50 0.00070
91.00 0.00072
91.50 0.00074
92.00 0.00076
92.50 0.00079
93.00 0.00081
93.50 0.00086
94.00 0.00091
94.50 0.00096
95.00 0.00101
95.50 0.00106
96.00 0.00112
96.50 0.00117
97.00 0.00127
97.50 0.00139
98.00 0.00151
98.50 0.00163
99.00 0.00177
99.50 0.00191
100.00 0.00205
100.50 0.00219
101.00 0.00233
101.50 0.00253
102.00 0.00281
102.50 0.00309
103.00 0.00338
103.50 0.00366
104.00 0.00395
104.50 0.00424
105.00 0.00453
105.50 0.00482
106.00 0.00511
106.50 0.00564
107.00 0.00620
107.50 0.00676
108.00 0.00735
108.50 0.00806
109.00 0.00877
109.50 0.00949
110.00 0.01021
110.50 0.01092
111.00 0.01188
111.50 0.01301
112.00 0.01415
112.50 0.01529
113.00 0.01642
113.50 0.01756
114.00 0.01933
114.50 0.02118
115.00 0.02303
115.50 0.02489
116.00 0.02729
116.50 0.02981
117.00 0.03232
117.50 0.03483
118.00 0.03734
118.50 0.03985
119.00 0.04358
119.50 0.04831
120.00 0.05304
120.50 0.05778
121.00 0.06281
121.50 0.06803
122.00 0.07324
122.50 0.07846
123.00 0.08367
123.50 0.08956
124.00 0.09892
124.50 0.10827
125.00 0.11763
125.50 0.12698
126.00 0.13633
126.50 0.14684
127.00 0.16204
127.50 0.17725
128.00 0.19231
128.50 0.20729
129.00 0.22225
129.50 0.23768
130.00 0.25854
130.50 0.28198
131.00 0.30538
131.50 0.32872
132.00 0.35200
132.50 0.37680
133.00 0.40478
133.50 0.43271
134.00 0.46058
134.50 0.48839
135.00 0.51829
135.50 0.55296
136.00 0.58861
136.50 0.62415
137.00 0.65957
137.50 0.69488
138.00 0.72943
138.50 0.75938
139.00 0.78921
139.50 0.81891
140.00 0.84848
140.50 0.87791
141.00 0.90733
141.50 0.93703
142.00 0.96662
142.50 0.99611
143.00 1.02550
143.50 1.05478
144.00 1.07816
144.50 1.09837
145.00 1.11848
145.50 1.13847
146.00 1.15836
146.50 1.17813
147.00 1.19836
147.50 1.21400
148.00 1.22893
148.50 1.24381
149.00 1.25862
149.50 1.27336
150.00 1.28805
150.50 1.30003
151.00 1.30736
151.50 1.31457
152.00 1.32174
152.50 1.32886
153.00 1.33627
153.50 1.34137
154.00 1.34547
154.50 1.34973
155.00 1.35396
155.50 1.35714
156.00 1.35805
156.50 1.35864
157.00 1.35919
157.50 1.35973
158.00 1.36012
158.50 1.35934
159.00 1.35740
159.50 1.35543
160.00 1.35344
160.50 1.35142
161.00 1.34937
161.50 1.34730
162.00 1.34521
162.50 1.34310
163.00 1.34097
163.50 1.33883
164.00 1.33667
164.50 1.33450
165.00 1.33275
165.50 1.33223
166.00 1.33170
166.50 1.33115
167.00 1.33059
167.50 1.32979
168.00 1.32984
168.50 1.33075
169.00 1.33165
169.50 1.33254
170.00 1.33342
170.50 1.33429
171.00 1.33507
171.50 1.33639
172.00 1.33775
172.50 1.33924
173.00 1.34076
173.50 1.34229
174.00 1.34384
174.50 1.34562
175.00 1.34706
175.50 1.34837
176.00 1.34972
176.50 1.35110
177.00 1.35250
177.50 1.35347
178.00 1.35371
178.50 1.35399
179.00 1.35429
179.50 1.35463
180.00 1.35511
180.00 1.35511
180.50 1.35463
181.00 1.35429
181.50 1.35399
182.00 1.35371
182.50 1.35347
183.00 1.35250
183.50 1.35110
184.00 1.34972
184.50 1.34837
185.00 1.34706
185.50 1.34562
186.00 1.34384
186.50 1.34229
187.00 1.34076
187.50 1.33924
188.00 1.33775
188.50 1.33639
189.00 1.33507
189.50 1.33429
190.00 1.33342
190.50 1.33254
191.00 1.33165
191.50 1.33075
192.00 1.32984
192.50 1.32979
193.00 1.33059
193.50 1.33115
194.00 1.33170
194.50 1.33223
195.00 1.33275
195.50 1.33450
196.00 1.33667
196.50 1.33883
197.00 1.34097
197.50 1.34310
198.00 1.34521
198.50 1.34730
199.00 1.34937
199.50 1.35142
200.00 1.35344
200.50 1.35543
201.00 1.35740
201.50 1.35934
202.00 1.36012
202.50 1.35973
203.00 1.35919
203.50 1.35864
204.00 1.35805
204.50 1.35714
205.00 1.35396
205.50 1.34973
206.00 1.34547
206.50 1.34137
207.00 1.33627
207.50 1.32886
208.00 1.32174
208.50 1.31457
209.00 1.30736
209.50 1.30003
210.00 1.28805
210.50 1.27336
211.00 1.25862
211.50 1.24381
212.00 1.22893
212.50 1.21400
213.00 1.19836
213.50 1.17813
214.00 1.15836
214.50 1.13847
215.00 1.11848
215.50 1.09837
216.00 1.07816
216.50 1.05478
217.00 1.02550
217.50 0.99611
218.00 0.96662
218.50 0.93703
219.00 0.90733
219.50 0.87791
220.00 0.84848
220.50 0.81891
221.00 0.78921
221.50 0.75938
222.00 0.72943
222.50 0.69488
223.00 0.65957
223.50 0.62415
224.00 0.58861
224.50 0.55296
225.00 0.51829
225.50 0.48839
226.00 0.46058
226.50 0.43271
227.00 0.40478
227.50 0.37680
228.00 0.35200
228.50 0.32872
229.00 0.30538
229.50 0.28198
230.00 0.25854
230.50 0.23768
231.00 0.22225
231.50 0.20729
232.00 0.19231
232.50 0.17725
233.00 0.16204
233.50 0.14684
234.00 0.13633
234.50 0.12698
235.00 0.11763
235.50 0.10827
236.00 0.09892
236.50 0.08956
237.00 0.08367
237.50 0.07846
238.00 0.07324
238.50 0.06803
239.00 0.06281
239.50 0.05778
240.00 0.05304
240.50 0.04831
241.00 0.04358
241.50 0.03985
242.00 0.03734
242.50 0.03483
243.00 0.03232
243.50 0.02981
244.00 0.02729
244.50 0.02489
245.00 0.02303
245.50 0.02118
246.00 0.01933
246.50 0.01756
247.00 0.01642
247.50 0.01529
248.00 0.01415
248.50 0.01301
249.00 0.01188
249.50 0.01092
250.00 0.01021
250.50 0.00949
251.00 0.00877
251.50 0.00806
252.00 0.00735
252.50 0.00676
253.00 0.00620
253.50 0.00564
254.00 0.00511
254.50 0.00482
255.00 0.00453
255.50 0.00424
256.00 0.00395
256.50 0.00366
257.00 0.00338
257.50 0.00309
258.00 0.00281
258.50 0.00253
259.00 0.00233
259.50 0.00219
260.00 0.00205
260.50 0.00191
261.00 0.00177
261.50 0.00163
262.00 0.00151
262.50 0.00139
263.00 0.00127
263.50 0.00117
264.00 0.00112
264.50 0.00106
265.00 0.00101
265.50 0.00096
266.00 0.00091
266.50 0.00086
267.00 0.00081
267.50 0.00079
268.00 0.00076
268.50 0.00074
269.00 0.00072
269.50 0.00070
270.00 0.00067
270.00 0.00067
270.50 0.00070
271.00 0.00072
271.50 0.00074
272.00 0.00076
272.50 0.00079
273.00 0.00081
273.50 0.00086
274.00 0.00091
274.50 0.00096
275.00 0.00101
275.50 0.00106
276.00 0.00112
276.50 0.00117
277.00 0.00127
277.50 0.00139
278.00 0.00151
278.50 0.00163
279.00 0.00177
279.50 0.00191
280.00 0.00205
280.50 0.00219
281.00 0.00233
281.50 0.00253
282.00 0.00281
282.50 0.00309
283.00 0.00338
283.50 0.00366
284.00 0.00395
284.50 0.00424
285.00 0.00453
285.50 0.00482
286.00 0.00511
286.50 0.00564
287.00 0.00620
287.50 0.00676
288.00 0.00735
288.50 0.00806
289.00 0.00877
289.50 0.00949
290.00 0.01021
290.50 0.01092
291.00 0.01188
291.50 0.01301
292.00 0.01415
292.50 0.01529
293.00 0.01642
293.50 0.01756
294.00 0.01933
294.50 0.02118
295.00 0.02303
295.50 0.02489
296.00 0.02729
296.50 0.02981
297.00 0.03232
297.50 0.03483
298.00 0.03734
298.50 0.03985
299.00 0.04358
299.50 0.04831
300.00 0.05304
300.50 0.05778
301.00 0.06281
301.50 0.06803
302.00 0.07324
302.50 0.07846
303.00 0.08367
303.50 0.08956
304.00 0.09892
304.50 0.10827
305.00 0.11763
305.50 0.12698
306.00 0.13633
306.50 0.14684
307.00 0.16204
307.50 0.17725
308.00 0.19231
308.50 0.20729
309.00 0.22225
309.50 0.23768
310.00 0.25854
310.50 0.28198
311.00 0.30538
311.50 0.32872
312.00 0.35200
312.50 0.37680
313.00 0.40478
313.50 0.43271
314.00 0.46058
314.50 0.48839
315.00 0.51829
315.50 0.55296
316.00 0.58861
316.50 0.62415
317.00 0.65957
317.50 0.69488
318.00 0.72943
318.50 0.75938
319.00 0.78921
319.50 0.81891
320.00 0.84848
320.50 0.87791
321.00 0.90733
321.50 0.93703
322.00 0.96662
322.50 0.99611
323.00 1.02550
323.50 1.05478
324.00 1.07816
324.50 1.09837
325.00 1.11848
325.50 1.13847
326.00 1.15836
326.50 1.17813
327.00 1.19836
327.50 1.21400
328.00 1.22893
328.50 1.24381
329.00 1.25862
329.50 1.27336
330.00 1.28805
330.50 1.30003
331.00 1.30736
331.50 1.31457
332.00 1.32174
332.50 1.32886
333.00 1.33627
333.50 1.34137
334.00 1.34547
334.50 1.34973
335.00 1.35396
335.50 1.35714
336.00 1.35805
336.50 1.35864
337.00 1.35919
337.50 1.35973
338.00 1.36012
338.50 1.35934
339.00 1.35740
339.50 1.35543
340.00 1.35344
340.50 1.35142
341.00 1.34937
341.50 1.34730
342.00 1.34521
342.50 1.34310
343.00 1.34097
343.50 1.33883
344.00 1.33667
344.50 1.33450
345.00 1.33275
345.50 1.33223
346.00 1.33170
346.50 1.33115
347.00 1.33059
347.50 1.32979
348.00 1.32984
348.50 1.33075
349.00 1.33165
349.50 1.33254
350.00 1.33342
350.50 1.33429
351.00 1.33507
351.50 1.33639
352.00 1.33775
352.50 1.33924
353.00 1.34076
353.50 1.34229
354.00 1.34384
354.50 1.34562
355.00 1.34706
355.50 1.34837
356.00 1.34972
356.50 1.35110
357.00 1.35250
357.50 1.35347
358.00 1.35371
358.50 1.35399
359.00 1.35429
359.50 1.35463
360.00 1.35511
