phi[deg] B[T]
0.00 1.57837
0.50 1.57786
1.00 1.57747
1.50 1.57721
2.00 1.57705
2.50 1.57700
3.00 1.57699
3.50 1.57710
4.00 1.57733
4.50 1.57768
5.00 1.57827
5.50 1.57905
6.00 1.57994
6.50 1.58035
7.00 1.58086
7.50 1.58149
8.00 1.58267
8.50 1.58399
9.00 1.58541
9.50 1.58578
10.00 1.58520
10.50 1.58483
11.00 1.58600
11.50 1.58725
12.00 1.58735
12.50 1.58629
13.00 1.58441
13.50 1.58206
14.00 1.57978
14.50 1.57759
15.00 1.57547
15.50 1.57344
16.00 1.57144
16.50 1.56937
17.00 1.56774
17.50 1.56379
18.00 1.55962
18.50 1.55550
19.00 1.55145
19.50 1.54745
20.00 1.54351
20.50 1.54038
21.00 1.53890
21.50 1.53345
22.00 1.52570
22.50 1.51795
23.00 1.50985
23.50 1.50178
24.00 1.49375
24.50 1.48396
25.00 1.47224
25.50 1.46055
26.00 1.44833
26.50 1.43464
27.00 1.42100
27.50 1.40790
28.00 1.39484
28.50 1.38165
29.00 1.36807
29.50 1.35445
30.00 1.33871
30.50 1.32301
31.00 1.30732
31.50 1.29166
32.00 1.27636
32.50 1.26256
33.00 1.24877
33.50 1.23130
34.00 1.21275
34.50 1.19420
35.00 1.17565
35.50 1.15630
36.00 1.13685
36.50 1.11744
37.00 1.09804
37.50 1.07837
38.00 1.05700
38.50 1.03565
39.00 1.01440
39.50 0.99384
40.00 0.97345
40.50 0.95321
41.00 0.93335
41.50 0.91351
42.00 0.89421
42.50 0.87555
43.00 0.85686
43.50 0.83819
44.00 0.82012
44.50 0.80227
45.00 0.78438
45.50 0.76703
46.00 0.74978
46.50 0.73256
47.00 0.71579
47.50 0.69902
48.00 0.68144
48.50 0.66489
49.00 0.64831
49.50 0.63268
50.00 0.61755
50.50 0.60065
51.00 0.58199
51.50 0.56329
52.00 0.54737
52.50 0.53237
53.00 0.51729
53.50 0.50112
54.00 0.48399
54.50 0.46679
55.00 0.44952
55.50 0.43026
56.00 0.41086
56.50 0.39152
57.00 0.37214
57.50 0.35268
58.00 0.33314
58.50 0.31352
59.00 0.29472
59.50 0.27583
60.00 0.25592
60.50 0.23594
61.00 0.21591
61.50 0.19581
62.00 0.18128
62.50 0.16800
63.00 0.15468
63.50 0.14133
64.00 0.12780
64.50 0.11304
65.00 0.09828
65.50 0.08661
66.00 0.07915
66.50 0.07167
67.00 0.06520
67.50 0.05887
68.00 0.05254
68.50 0.04622
69.00 0.04059
69.50 0.03686
70.00 0.03313
70.50 0.02939
71.00 0.02627
71.50 0.02379
72.00 0.02131
72.50 0.01883
73.00 0.01689
73.50 0.01525
74.00 0.01359
74.50 0.01194
75.00 0.01091
75.50 0.00994
76.00 0.00896
76.50 0.00799
77.00 0.00702
77.50 0.00623
78.00 0.00544
78.50 0.00497
79.00 0.00456
79.50 0.00416
80.00 0.00377
80.50 0.00337
81.00 0.00298
81.50 0.00259
82.00 0.00234
82.50 0.00213
83.00 0.00193
83.50 0.00173
84.00 0.00157
84.50 0.00141
85.00 0.00125
85.50 0.00117
86.00 0.00110
86.50 0.00102
87.00 0.00094
87.50 0.00086
88.00 0.00083
88.50 0.00080
89.00 0.00077
89.50 0.00073
90.00 0.00070
90.00 0.00070
90.50 0.00073
91.00 0.00077
91.50 0.00080
92.00 0.00083
92.50 0.00086
93.00 0.00094
93.50 0.00102
94.00 0.00110
94.50 0.00117
95.00 0.00125
95.50 0.00141
96.00 0.00157
96.50 0.00173
97.00 0.00193
97.50 0.00213
98.00 0.00234
98.50 0.00259
99.00 0.00298
99.50 0.00337
100.00 0.00377
100.50 0.00416
101.00 0.00456
101.50 0.00497
102.00 0.00544
102.50 0.00623
103.00 0.00702
103.50 0.00799
104.00 0.00896
104.50 0.00994
105.00 0.01091
105.50 0.01194
106.00 0.01359
106.50 0.01525
107.00 0.01689
107.50 0.01883
108.00 0.02131
108.50 0.02379
109.00 0.02627
109.50 0.02939
110.00 0.03313
110.50 0.03686
111.00 0.04059
111.50 0.04622
112.00 0.05254
112.50 0.05887
113.00 0.06520
113.50 0.07167
114.00 0.07915
114.50 0.08661
115.00 0.09828
115.50 0.11304
116.00 0.12780
116.50 0.14133
117.00 0.15468
117.50 0.16800
118.00 0.18128
118.50 0.19581
119.00 0.21591
119.50 0.23594
120.00 0.25592
120.50 0.27583
121.00 0.29472
121.50 0.31352
122.00 0.33314
122.50 0.35268
123.00 0.37214
123.50 0.39152
124.00 0.41086
124.50 0.43026
125.00 0.44952
125.50 0.46679
126.00 0.48399
126.50 0.50112
127.00 0.51729
127.50 0.53237
128.00 0.54737
128.50 0.56329
129.00 0.58199
129.50 0.60065
130.00 0.61755
130.50 0.63268
131.00 0.64831
131.50 0.66489
132.00 0.68144
132.50 0.69902
133.00 0.71579
133.50 0.73256
134.00 0.74978
134.50 0.76703
135.00 0.78438
135.50 0.80227
136.00 0.82012
136.50 0.83819
137.00 0.85686
137.50 0.87555
138.00 0.89421
138.50 0.91351
139.00 0.93335
139.50 0.95321
140.00 0.97345
140.50 0.99384
141.00 1.01440
141.50 1.03565
142.00 1.05700
142.50 1.07837
143.00 1.09804
143.50 1.11744
144.00 1.13685
144.50 1.15630
145.00 1.17565
145.50 1.19420
146.00 1.21275
146.50 1.23130
147.00 1.24877
147.50 1.26256
148.00 1.27636
148.50 1.29166
149.00 1.30732
149.50 1.32301
150.00 1.33871
150.50 1.35445
151.00 1.36807
151.50 1.38165
152.00 1.39484
152.50 1.40790
153.00 1.42100
153.50 1.43464
154.00 1.44833
154.50 1.46055
155.00 1.47224
155.50 1.48396
156.00 1.49375
156.50 1.50178
157.00 1.50985
157.50 1.51795
158.00 1.52570
158.50 1.53345
159.00 1.53890
159.50 1.54038
160.00 1.54351
160.50 1.54745
161.00 1.55145
161.50 1.55550
162.00 1.55962
162.50 1.56379
163.00 1.56774
163.50 1.56937
164.00 1.57144
164.50 1.57344
165.00 1.57547
165.50 1.57759
166.00 1.57978
166.50 1.58206
167.00 1.58441
167.50 1.58629
168.00 1.58735
168.50 1.58725
169.00 1.58600
169.50 1.58483
170.00 1.58520
170.50 1.58578
171.00 1.58541
171.50 1.58399
172.00 1.58267
172.50 1.58149
173.00 1.58086
173.50 1.58035
174.00 1.57994
174.50 1.57905
175.00 1.57827
175.50 1.57768
176.00 1.57733
176.50 1.57710
177.00 1.57699
177.50 1.57700
178.00 1.57705
178.50 1.57721
179.00 1.57747
179.50 1.57786
180.00 1.57837
180.00 1.57837
180.50 1.57786
181.00 1.57747
181.50 1.57721
182.00 1.57705
182.50 1.57700
183.00 1.57699
183.50 1.57710
184.00 1.57733
184.50 1.57768
185.00 1.57827
185.50 1.57905
186.00 1.57994
186.50 1.58035
187.00 1.58086
187.50 1.58149
188.00 1.58267
188.50 1.58399
189.00 1.58541
189.50 1.58578
190.00 1.58520
190.50 1.58483
191.00 1.58600
191.50 1.58725
192.00 1.58735
192.50 1.58629
193.00 1.58441
193.50 1.58206
194.00 1.57978
194.50 1.57759
195.00 1.57547
195.50 1.57344
196.00 1.57144
196.50 1.56937
197.00 1.56774
197.50 1.56379
198.00 1.55962
198.50 1.55550
199.00 1.55145
199.50 1.54745
200.00 1.54351
200.50 1.54038
201.00 1.53890
201.50 1.53345
202.00 1.52570
202.50 1.51795
203.00 1.50985
203.50 1.50178
204.00 1.49375
204.50 1.48396
205.00 1.47224
205.50 1.46055
206.00 1.44833
206.50 1.43464
207.00 1.42100
207.50 1.40790
208.00 1.39484
208.50 1.38165
209.00 1.36807
209.50 1.35445
210.00 1.33871
210.50 1.32301
211.00 1.30732
211.50 1.29166
212.00 1.27636
212.50 1.26256
213.00 1.24877
213.50 1.23130
214.00 1.21275
214.50 1.19420
215.00 1.17565
215.50 1.15630
216.00 1.13685
216.50 1.11744
217.00 1.09804
217.50 1.07837
218.00 1.05700
218.50 1.03565
219.00 1.01440
219.50 0.99384
220.00 0.97345
220.50 0.95321
221.00 0.93335
221.50 0.91351
222.00 0.89421
222.50 0.87555
223.00 0.85686
223.50 0.83819
224.00 0.82012
224.50 0.80227
225.00 0.78438
225.50 0.76703
226.00 0.74978
226.50 0.73256
227.00 0.71579
227.50 0.69902
228.00 0.68144
228.50 0.66489
229.00 0.64831
229.50 0.63268
230.00 0.61755
230.50 0.60065
231.00 0.58199
231.50 0.56329
232.00 0.54737
232.50 0.53237
233.00 0.51729
233.50 0.50112
234.00 0.48399
234.50 0.46679
235.00 0.44952
235.50 0.43026
236.00 0.41086
236.50 0.39152
237.00 0.37214
237.50 0.35268
238.00 0.33314
238.50 0.31352
239.00 0.29472
239.50 0.27583
240.00 0.25592
240.50 0.23594
241.00 0.21591
241.50 0.19581
242.00 0.18128
242.50 0.16800
243.00 0.15468
243.50 0.14133
244.00 0.12780
244.50 0.11304
245.00 0.09828
245.50 0.08661
246.00 0.07915
246.50 0.07167
247.00 0.06520
247.50 0.05887
248.00 0.05254
248.50 0.04622
249.00 0.04059
249.50 0.03686
250.00 0.03313
250.50 0.02939
251.00 0.02627
251.50 0.02379
252.00 0.02131
252.50 0.01883
253.00 0.01689
253.50 0.01525
254.00 0.01359
254.50 0.01194
255.00 0.01091
255.50 0.00994
256.00 0.00896
256.50 0.00799
257.00 0.00702
257.50 0.00623
258.00 0.00544
258.50 0.00497
259.00 0.00456
259.50 0.00416
260.00 0.00377
260.50 0.00337
261.00 0.00298
261.50 0.00259
262.00 0.00234
262.50 0.00213
263.00 0.00193
263.50 0.00173
264.00 0.00157
264.50 0.00141
265.00 0.00125
265.50 0.00117
266.00 0.00110
266.50 0.00102
267.00 0.00094
267.50 0.00086
268.00 0.00083
268.50 0.00080
269.00 0.00077
269.50 0.00073
270.00 0.00070
270.00 0.00070
270.50 0.00073
271.00 0.00077
271.50 0.00080
272.00 0.00083
272.50 0.00086
273.00 0.00094
273.50 0.00102
274.00 0.00110
274.50 0.00117
275.00 0.00125
275.50 0.00141
276.00 0.00157
276.50 0.00173
277.00 0.00193
277.50 0.00213
278.00 0.00234
278.50 0.00259
279.00 0.00298
279.50 0.00337
280.00 0.00377
280.50 0.00416
281.00 0.00456
281.50 0.00497
282.00 0.00544
282.50 0.00623
283.00 0.00702
283.50 0.00799
284.00 0.00896
284.50 0.00994
285.00 0.01091
285.50 0.01194
286.00 0.01359
286.50 0.01525
287.00 0.01689
287.50 0.01883
288.00 0.02131
288.50 0.02379
289.00 0.02627
289.50 0.02939
290.00 0.03313
290.50 0.03686
291.00 0.04059
291.50 0.04622
292.00 0.05254
292.50 0.05887
293.00 0.06520
293.50 0.07167
294.00 0.07915
294.50 0.08661
295.00 0.09828
295.50 0.11304
296.00 0.12780
296.50 0.14133
297.00 0.15468
297.50 0.16800
298.00 0.18128
298.50 0.19581
299.00 0.21591
299.50 0.23594
300.00 0.25592
300.50 0.27583
301.00 0.29472
301.50 0.31352
302.00 0.33314
302.50 0.35268
303.00 0.37214
303.50 0.39152
304.00 0.41086
304.50 0.43026
305.00 0.44952
305.50 0.46679
306.00 0.48399
306.50 0.50112
307.00 0.51729
307.50 0.53237
308.00 0.54737
308.50 0.56329
309.00 0.58199
309.50 0.60065
310.00 0.61755
310.50 0.63268
311.00 0.64831
311.50 0.66489
312.00 0.68144
312.50 0.69902
313.00 0.71579
313.50 0.73256
314.00 0.74978
314.50 0.76703
315.00 0.78438
315.50 0.80227
316.00 0.82012
316.50 0.83819
317.00 0.85686
317.50 0.87555
318.00 0.89421
318.50 0.91351
319.00 0.93335
319.50 0.95321
320.00 0.97345
320.50 0.99384
321.00 1.01440
321.50 1.03565
322.00 1.05700
322.50 1.07837
323.00 1.09804
323.50 1.11744
324.00 1.13685
324.50 1.15630
325.00 1.17565
325.50 1.19420
326.00 1.21275
326.50 1.23130
327.00 1.24877
327.50 1.26256
328.00 1.27636
328.50 1.29166
329.00 1.30732
329.50 1.32301
330.00 1.33871
330.50 1.35445
331.00 1.36807
331.50 1.38165
332.00 1.39484
332.50 1.40790
333.00 1.42100
333.50 1.43464
334.00 1.44833
334.50 1.46055
335.00 1.47224
335.50 1.48396
336.00 1.49375
336.50 1.50178
337.00 1.50985
337.50 1.51795
338.00 1.52570
338.50 1.53345
339.00 1.53890
339.50 1.54038
340.00 1.54351
340.50 1.54745
341.00 1.55145
341.50 1.55550
342.00 1.55962
342.50 1.56379
343.00 1.56774
343.50 1.56937
344.00 1.57144
344.50 1.57344
345.00 1.57547
345.50 1.57759
346.00 1.57978
346.50 1.58206
347.00 1.58441
347.50 1.58629
348.00 1.58735
348.50 1.58725
349.00 1.58600
349.50 1.58483
350.00 1.58520
350.50 1.58578
351.00 1.58541
351.50 1.58399
352.00 1.58267
352.50 1.58149
353.00 1.58086
353.50 1.58035
354.00 1.57994
354.50 1.57905
355.00 1.57827
355.50 1.57768
356.00 1.57733
356.50 1.57710
357.00 1.57699
357.50 1.57700
358.00 1.57705
358.50 1.57721
359.00 1.57747
359.50 1.57786
360.00 1.57837
