phi[deg] B[T]
0.00 1.50169
0.50 1.50111
1.00 1.50063
1.50 1.50028
2.00 1.49979
2.50 1.49952
3.00 1.49937
3.50 1.49908
4.00 1.49877
4.50 1.49912
5.00 1.49963
5.50 1.50057
6.00 1.50191
6.50 1.50336
7.00 1.50455
7.50 1.50585
8.00 1.50791
8.50 1.51077
9.00 1.51374
9.50 1.51549
10.00 1.51648
10.50 1.51756
11.00 1.51923
11.50 1.52100
12.00 1.52245
12.50 1.52116
13.00 1.51995
13.50 1.51871
14.00 1.51704
14.50 1.51514
15.00 1.51249
15.50 1.51001
16.00 1.50784
16.50 1.50576
17.00 1.50375
17.50 1.50180
18.00 1.49994
18.50 1.49818
19.00 1.49615
19.50 1.49230
20.00 1.48873
20.50 1.48670
21.00 1.48471
21.50 1.48278
22.00 1.47706
22.50 1.46875
23.00 1.46049
23.50 1.45400
24.00 1.44859
24.50 1.43354
25.00 1.41890
25.50 1.40571
26.00 1.39257
26.50 1.37946
27.00 1.36313
27.50 1.34646
28.00 1.33049
28.50 1.31471
29.00 1.29898
29.50 1.28339
30.00 1.26812
30.50 1.25307
31.00 1.23797
31.50 1.22277
32.00 1.20744
32.50 1.19029
33.00 1.17518
33.50 1.16050
34.00 1.14585
34.50 1.12773
35.00 1.10941
35.50 1.09113
36.00 1.07487
36.50 1.05472
37.00 1.03451
37.50 1.01466
38.00 0.99483
38.50 0.97450
39.00 0.95344
39.50 0.93291
40.00 0.91269
40.50 0.89271
41.00 0.87281
41.50 0.85304
42.00 0.83330
42.50 0.81420
43.00 0.79529
43.50 0.77687
44.00 0.75864
44.50 0.74104
45.00 0.72359
45.50 0.70727
46.00 0.69098
46.50 0.67607
47.00 0.66193
47.50 0.64820
48.00 0.63642
48.50 0.62553
49.00 0.61437
49.50 0.60325
50.00 0.59217
50.50 0.58304
51.00 0.57684
51.50 0.56586
52.00 0.55411
52.50 0.54228
53.00 0.53038
53.50 0.52295
54.00 0.51114
54.50 0.49630
55.00 0.47946
55.50 0.46247
56.00 0.44531
56.50 0.42734
57.00 0.40916
57.50 0.38777
58.00 0.36373
58.50 0.33951
59.00 0.31269
59.50 0.28270
60.00 0.25273
60.50 0.23088
61.00 0.20893
61.50 0.18688
62.00 0.16215
62.50 0.13551
63.00 0.11814
63.50 0.10224
64.00 0.08925
64.50 0.07625
65.00 0.06524
65.50 0.05726
66.00 0.04925
66.50 0.04141
67.00 0.03476
67.50 0.03078
68.00 0.02718
68.50 0.02358
69.00 0.01991
69.50 0.01619
70.00 0.01436
70.50 0.01276
71.00 0.01116
71.50 0.00957
72.00 0.00797
72.50 0.00639
73.00 0.00566
73.50 0.00508
74.00 0.00449
74.50 0.00391
75.00 0.00332
75.50 0.00274
76.00 0.00227
76.50 0.00203
77.00 0.00180
77.50 0.00157
78.00 0.00133
78.50 0.00111
79.00 0.00099
79.50 0.00087
80.00 0.00077
80.50 0.00067
81.00 0.00060
81.50 0.00054
82.00 0.00048
82.50 0.00042
83.00 0.00038
83.50 0.00035
84.00 0.00031
84.50 0.00028
85.00 0.00025
85.50 0.00022
86.00 0.00019
86.50 0.00017
87.00 0.00014
87.50 0.00012
88.00 0.00010
88.50 0.00008
89.00 0.00007
89.50 0.00006
90.00 0.00004
90.00 0.00004
90.50 0.00006
91.00 0.00007
91.50 0.00008
92.00 0.00010
92.50 0.00012
93.00 0.00014
93.50 0.00017
94.00 0.00019
94.50 0.00022
95.00 0.00025
95.50 0.00028
96.00 0.00031
96.50 0.00035
97.00 0.00038
97.50 0.00042
98.00 0.00048
98.50 0.00054
99.00 0.00060
99.50 0.00067
100.00 0.00077
100.50 0.00087
101.00 0.00099
101.50 0.00111
102.00 0.00133
102.50 0.00157
103.00 0.00180
103.50 0.00203
104.00 0.00227
104.50 0.00274
105.00 0.00332
105.50 0.00391
106.00 0.00449
106.50 0.00508
107.00 0.00566
107.50 0.00639
108.00 0.00797
108.50 0.00957
109.00 0.01116
109.50 0.01276
110.00 0.01436
110.50 0.01619
111.00 0.01991
111.50 0.02358
112.00 0.02718
112.50 0.03078
113.00 0.03476
113.50 0.04141
114.00 0.04925
114.50 0.05726
115.00 0.06524
115.50 0.07625
116.00 0.08925
116.50 0.10224
117.00 0.11814
117.50 0.13551
118.00 0.16215
118.50 0.18688
119.00 0.20893
119.50 0.23088
120.00 0.25273
120.50 0.28270
121.00 0.31269
121.50 0.33951
122.00 0.36373
122.50 0.38777
123.00 0.40916
123.50 0.42734
124.00 0.44531
124.50 0.46247
125.00 0.47946
125.50 0.49630
126.00 0.51114
126.50 0.52295
127.00 0.53038
127.50 0.54228
128.00 0.55411
128.50 0.56586
129.00 0.57684
129.50 0.58304
130.00 0.59217
130.50 0.60325
131.00 0.61437
131.50 0.62553
132.00 0.63642
132.50 0.64820
133.00 0.66193
133.50 0.67607
134.00 0.69098
134.50 0.70727
135.00 0.72359
135.50 0.74104
136.00 0.75864
136.50 0.77687
137.00 0.79529
137.50 0.81420
138.00 0.83330
138.50 0.85304
139.00 0.87281
139.50 0.89271
140.00 0.91269
140.50 0.93291
141.00 0.95344
141.50 0.97450
142.00 0.99483
142.50 1.01466
143.00 1.03451
143.50 1.05472
144.00 1.07487
144.50 1.09113
145.00 1.10941
145.50 1.12773
146.00 1.14585
146.50 1.16050
147.00 1.17518
147.50 1.19029
148.00 1.20744
148.50 1.22277
149.00 1.23797
149.50 1.25307
150.00 1.26812
150.50 1.28339
151.00 1.29898
151.50 1.31471
152.00 1.33049
152.50 1.34646
153.00 1.36313
153.50 1.37946
154.00 1.39257
154.50 1.40571
155.00 1.41890
155.50 1.43354
156.00 1.44859
156.50 1.45400
157.00 1.46049
157.50 1.46875
158.00 1.47706
158.50 1.48278
159.00 1.48471
159.50 1.48670
160.00 1.48873
160.50 1.49230
161.00 1.49615
161.50 1.49818
162.00 1.49994
162.50 1.50180
163.00 1.50375
163.50 1.50576
164.00 1.50784
164.50 1.51001
165.00 1.51249
165.50 1.51514
166.00 1.51704
166.50 1.51871
167.00 1.51995
167.50 1.52116
168.00 1.52245
168.50 1.52100
169.00 1.51923
169.50 1.51756
170.00 1.51648
170.50 1.51549
171.00 1.51374
171.50 1.51077
172.00 1.50791
172.50 1.50585
173.00 1.50455
173.50 1.50336
174.00 1.50191
174.50 1.50057
175.00 1.49963
175.50 1.49912
176.00 1.49877
176.50 1.49908
177.00 1.49937
177.50 1.49952
178.00 1.49979
178.50 1.50028
179.00 1.50063
179.50 1.50111
180.00 1.50169
180.00 1.50169
180.50 1.50111
181.00 1.50063
181.50 1.50028
182.00 1.49979
182.50 1.49952
183.00 1.49937
183.50 1.49908
184.00 1.49877
184.50 1.49912
185.00 1.49963
185.50 1.50057
186.00 1.50191
186.50 1.50336
187.00 1.50455
187.50 1.50585
188.00 1.50791
188.50 1.51077
189.00 1.51374
189.50 1.51549
190.00 1.51648
190.50 1.51756
191.00 1.51923
191.50 1.52100
192.00 1.52245
192.50 1.52116
193.00 1.51995
193.50 1.51871
194.00 1.51704
194.50 1.51514
195.00 1.51249
195.50 1.51001
196.00 1.50784
196.50 1.50576
197.00 1.50375
197.50 1.50180
198.00 1.49994
198.50 1.49818
199.00 1.49615
199.50 1.49230
200.00 1.48873
200.50 1.48670
201.00 1.48471
201.50 1.48278
202.00 1.47706
202.50 1.46875
203.00 1.46049
203.50 1.45400
204.00 1.44859
204.50 1.43354
205.00 1.41890
205.50 1.40571
206.00 1.39257
206.50 1.37946
207.00 1.36313
207.50 1.34646
208.00 1.33049
208.50 1.31471
209.00 1.29898
209.50 1.28339
210.00 1.26812
210.50 1.25307
211.00 1.23797
211.50 1.22277
212.00 1.20744
212.50 1.19029
213.00 1.17518
213.50 1.16050
214.00 1.14585
214.50 1.12773
215.00 1.10941
215.50 1.09113
216.00 1.07487
216.50 1.05472
217.00 1.03451
217.50 1.01466
218.00 0.99483
218.50 0.97450
219.00 0.95344
219.50 0.93291
220.00 0.91269
220.50 0.89271
221.00 0.87281
221.50 0.85304
222.00 0.83330
222.50 0.81420
223.00 0.79529
223.50 0.77687
224.00 0.75864
224.50 0.74104
225.00 0.72359
225.50 0.70727
226.00 0.69098
226.50 0.67607
227.00 0.66193
227.50 0.64820
228.00 0.63642
228.50 0.62553
229.00 0.61437
229.50 0.60325
230.00 0.59217
230.50 0.58304
231.00 0.57684
231.50 0.56586
232.00 0.55411
232.50 0.54228
233.00 0.53038
233.50 0.52295
234.00 0.51114
234.50 0.49630
235.00 0.47946
235.50 0.46247
236.00 0.44531
236.50 0.42734
237.00 0.40916
237.50 0.38777
238.00 0.36373
238.50 0.33951
239.00 0.31269
239.50 0.28270
240.00 0.25273
240.50 0.23088
241.00 0.20893
241.50 0.18688
242.00 0.16215
242.50 0.13551
243.00 0.11814
243.50 0.10224
244.00 0.08925
244.50 0.07625
245.00 0.06524
245.50 0.05726
246.00 0.04925
246.50 0.04141
247.00 0.03476
247.50 0.03078
248.00 0.02718
248.50 0.02358
249.00 0.01991
249.50 0.01619
250.00 0.01436
250.50 0.01276
251.00 0.01116
251.50 0.00957
252.00 0.00797
252.50 0.00639
253.00 0.00566
253.50 0.00508
254.00 0.00449
254.50 0.00391
255.00 0.00332
255.50 0.00274
256.00 0.00227
256.50 0.00203
257.00 0.00180
257.50 0.00157
258.00 0.00133
258.50 0.00111
259.00 0.00099
259.50 0.00087
260.00 0.00077
260.50 0.00067
261.00 0.00060
261.50 0.00054
262.00 0.00048
262.50 0.00042
263.00 0.00038
263.50 0.00035
264.00 0.00031
264.50 0.00028
265.00 0.00025
265.50 0.00022
266.00 0.00019
266.50 0.00017
267.00 0.00014
267.50 0.00012
268.00 0.00010
268.50 0.00008
269.00 0.00007
269.50 0.00006
270.00 0.00004
270.00 0.00004
270.50 0.00006
271.00 0.00007
271.50 0.00008
272.00 0.00010
272.50 0.00012
273.00 0.00014
273.50 0.00017
274.00 0.00019
274.50 0.00022
275.00 0.00025
275.50 0.00028
276.00 0.00031
276.50 0.00035
277.00 0.00038
277.50 0.00042
278.00 0.00048
278.50 0.00054
279.00 0.00060
279.50 0.00067
280.00 0.00077
280.50 0.00087
281.00 0.00099
281.50 0.00111
282.00 0.00133
282.50 0.00157
283.00 0.00180
283.50 0.00203
284.00 0.00227
284.50 0.00274
285.00 0.00332
285.50 0.00391
286.00 0.00449
286.50 0.00508
287.00 0.00566
287.50 0.00639
288.00 0.00797
288.50 0.00957
289.00 0.01116
289.50 0.01276
290.00 0.01436
290.50 0.01619
291.00 0.01991
291.50 0.02358
292.00 0.02718
292.50 0.03078
293.00 0.03476
293.50 0.04141
294.00 0.04925
294.50 0.05726
295.00 0.06524
295.50 0.07625
296.00 0.08925
296.50 0.10224
297.00 0.11814
297.50 0.13551
298.00 0.16215
298.50 0.18688
299.00 0.20893
299.50 0.23088
300.00 0.25273
300.50 0.28270
301.00 0.31269
301.50 0.33951
302.00 0.36373
302.50 0.38777
303.00 0.40916
303.50 0.42734
304.00 0.44531
304.50 0.46247
305.00 0.47946
305.50 0.49630
306.00 0.51114
306.50 0.52295
307.00 0.53038
307.50 0.54228
308.00 0.55411
308.50 0.56586
309.00 0.57684
309.50 0.58304
310.00 0.59217
310.50 0.60325
311.00 0.61437
311.50 0.62553
312.00 0.63642
312.50 0.64820
313.00 0.66193
313.50 0.67607
314.00 0.69098
314.50 0.70727
315.00 0.72359
315.50 0.74104
316.00 0.75864
316.50 0.77687
317.00 0.79529
317.50 0.81420
318.00 0.83330
318.50 0.85304
319.00 0.87281
319.50 0.89271
320.00 0.91269
320.50 0.93291
321.00 0.95344
321.50 0.97450
322.00 0.99483
322.50 1.01466
323.00 1.03451
323.50 1.05472
324.00 1.07487
324.50 1.09113
325.00 1.10941
325.50 1.12773
326.00 1.14585
326.50 1.16050
327.00 1.17518
327.50 1.19029
328.00 1.20744
328.50 1.22277
329.00 1.23797
329.50 1.25307
330.00 1.26812
330.50 1.28339
331.00 1.29898
331.50 1.31471
332.00 1.33049
332.50 1.34646
333.00 1.36313
333.50 1.37946
334.00 1.39257
334.50 1.40571
335.00 1.41890
335.50 1.43354
336.00 1.44859
336.50 1.45400
337.00 1.46049
337.50 1.46875
338.00 1.47706
338.50 1.48278
339.00 1.48471
339.50 1.48670
340.00 1.48873
340.50 1.49230
341.00 1.49615
341.50 1.49818
342.00 1.49994
342.50 1.50180
343.00 1.50375
343.50 1.50576
344.00 1.50784
344.50 1.51001
345.00 1.51249
345.50 1.51514
346.00 1.51704
346.50 1.51871
347.00 1.51995
347.50 1.52116
348.00 1.52245
348.50 1.52100
349.00 1.51923
349.50 1.51756
350.00 1.51648
350.50 1.51549
351.00 1.51374
351.50 1.51077
352.00 1.50791
352.50 1.50585
353.00 1.50455
353.50 1.50336
354.00 1.50191
354.50 1.50057
355.00 1.49963
355.50 1.49912
356.00 1.49877
356.50 1.49908
357.00 1.49937
357.50 1.49952
358.00 1.49979
358.50 1.50028
359.00 1.50063
359.50 1.50111
360.00 1.50169
