phi[deg] B[T]
0.00 1.72820
0.50 1.72768
1.00 1.72729
1.50 1.72703
2.00 1.72690
2.50 1.72676
3.00 1.72676
3.50 1.72689
4.00 1.72716
4.50 1.72741
5.00 1.72777
5.50 1.72846
6.00 1.72962
6.50 1.73092
7.00 1.73175
7.50 1.73234
8.00 1.73304
8.50 1.73388
9.00 1.73533
9.50 1.73804
10.00 1.73971
10.50 1.74063
11.00 1.74022
11.50 1.73991
12.00 1.73969
12.50 1.73956
13.00 1.73806
13.50 1.73606
14.00 1.73378
14.50 1.73058
15.00 1.72747
15.50 1.72446
16.00 1.72155
16.50 1.71880
17.00 1.71626
17.50 1.71401
18.00 1.70985
18.50 1.70542
19.00 1.70106
19.50 1.69679
20.00 1.69289
20.50 1.69023
21.00 1.68764
21.50 1.67932
22.00 1.67014
22.50 1.66100
23.00 1.65190
23.50 1.64345
24.00 1.63705
24.50 1.62354
25.00 1.60781
25.50 1.59334
26.00 1.57891
26.50 1.56453
27.00 1.55018
27.50 1.53455
28.00 1.51773
28.50 1.50084
29.00 1.48349
29.50 1.46619
30.00 1.44895
30.50 1.43177
31.00 1.41493
31.50 1.39950
32.00 1.38437
32.50 1.36544
33.00 1.34653
33.50 1.32763
34.00 1.30876
34.50 1.28991
35.00 1.27139
35.50 1.25371
36.00 1.23184
36.50 1.20902
37.00 1.18711
37.50 1.16527
38.00 1.14340
38.50 1.12076
39.00 1.09815
39.50 1.07548
40.00 1.05282
40.50 1.03022
41.00 1.00784
41.50 0.98632
42.00 0.96484
42.50 0.94339
43.00 0.92278
43.50 0.90245
44.00 0.88239
44.50 0.86276
45.00 0.84337
45.50 0.82523
46.00 0.80684
46.50 0.78924
47.00 0.77277
47.50 0.75634
48.00 0.74094
48.50 0.72639
49.00 0.71184
49.50 0.69506
50.00 0.67986
50.50 0.66774
51.00 0.65532
51.50 0.63976
52.00 0.62416
52.50 0.60851
53.00 0.59274
53.50 0.57359
54.00 0.55691
54.50 0.54006
55.00 0.52306
55.50 0.50590
56.00 0.48722
56.50 0.46768
57.00 0.44469
57.50 0.42153
58.00 0.39820
58.50 0.37327
59.00 0.34413
59.50 0.31484
60.00 0.29129
60.50 0.26830
61.00 0.24520
61.50 0.22200
62.00 0.19564
62.50 0.16908
63.00 0.15058
63.50 0.13363
64.00 0.11971
64.50 0.10579
65.00 0.09187
65.50 0.08013
66.00 0.07147
66.50 0.06279
67.00 0.05435
67.50 0.04778
68.00 0.04121
68.50 0.03595
69.00 0.03243
69.50 0.02890
70.00 0.02538
70.50 0.02184
71.00 0.01855
71.50 0.01651
72.00 0.01486
72.50 0.01322
73.00 0.01158
73.50 0.00995
74.00 0.00844
74.50 0.00758
75.00 0.00673
75.50 0.00587
76.00 0.00513
76.50 0.00440
77.00 0.00391
77.50 0.00352
78.00 0.00315
78.50 0.00278
79.00 0.00241
79.50 0.00204
80.00 0.00184
80.50 0.00164
81.00 0.00144
81.50 0.00129
82.00 0.00115
82.50 0.00101
83.00 0.00090
83.50 0.00080
84.00 0.00071
84.50 0.00065
85.00 0.00059
85.50 0.00053
86.00 0.00048
86.50 0.00043
87.00 0.00040
87.50 0.00038
88.00 0.00035
88.50 0.00033
89.00 0.00032
89.50 0.00031
90.00 0.00030
90.00 0.00030
90.50 0.00031
91.00 0.00032
91.50 0.00033
92.00 0.00035
92.50 0.00038
93.00 0.00040
93.50 0.00043
94.00 0.00048
94.50 0.00053
95.00 0.00059
95.50 0.00065
96.00 0.00071
96.50 0.00080
97.00 0.00090
97.50 0.00101
98.00 0.00115
98.50 0.00129
99.00 0.00144
99.50 0.00164
100.00 0.00184
100.50 0.00204
101.00 0.00241
101.50 0.00278
102.00 0.00315
102.50 0.00352
103.00 0.00391
103.50 0.00440
104.00 0.00513
104.50 0.00587
105.00 0.00673
105.50 0.00758
106.00 0.00844
106.50 0.00995
107.00 0.01158
107.50 0.01322
108.00 0.01486
108.50 0.01651
109.00 0.01855
109.50 0.02184
110.00 0.02538
110.50 0.02890
111.00 0.03243
111.50 0.03595
112.00 0.04121
112.50 0.04778
113.00 0.05435
113.50 0.06279
114.00 0.07147
114.50 0.08013
115.00 0.09187
115.50 0.10579
116.00 0.11971
116.50 0.13363
117.00 0.15058
117.50 0.16908
118.00 0.19564
118.50 0.22200
119.00 0.24520
119.50 0.26830
120.00 0.29129
120.50 0.31484
121.00 0.34413
121.50 0.37327
122.00 0.39820
122.50 0.42153
123.00 0.44469
123.50 0.46768
124.00 0.48722
124.50 0.50590
125.00 0.52306
125.50 0.54006
126.00 0.55691
126.50 0.57359
127.00 0.59274
127.50 0.60851
128.00 0.62416
128.50 0.63976
129.00 0.65532
129.50 0.66774
130.00 0.67986
130.50 0.69506
131.00 0.71184
131.50 0.72639
132.00 0.74094
132.50 0.75634
133.00 0.77277
133.50 0.78924
134.00 0.80684
134.50 0.82523
135.00 0.84337
135.50 0.86276
136.00 0.88239
136.50 0.90245
137.00 0.92278
137.50 0.94339
138.00 0.96484
138.50 0.98632
139.00 1.00784
139.50 1.03022
140.00 1.05282
140.50 1.07548
141.00 1.09815
141.50 1.12076
142.00 1.14340
142.50 1.16527
143.00 1.18711
143.50 1.20902
144.00 1.23184
144.50 1.25371
145.00 1.27139
145.50 1.28991
146.00 1.30876
146.50 1.32763
147.00 1.34653
147.50 1.36544
148.00 1.38437
148.50 1.39950
149.00 1.41493
149.50 1.43177
150.00 1.44895
150.50 1.46619
151.00 1.48349
151.50 1.50084
152.00 1.51773
152.50 1.53455
153.00 1.55018
153.50 1.56453
154.00 1.57891
154.50 1.59334
155.00 1.60781
155.50 1.62354
156.00 1.63705
156.50 1.64345
157.00 1.65190
157.50 1.66100
158.00 1.67014
158.50 1.67932
159.00 1.68764
159.50 1.69023
160.00 1.69289
160.50 1.69679
161.00 1.70106
161.50 1.70542
162.00 1.70985
162.50 1.71401
163.00 1.71626
163.50 1.71880
164.00 1.72155
164.50 1.72446
165.00 1.72747
165.50 1.73058
166.00 1.73378
166.50 1.73606
167.00 1.73806
167.50 1.73956
168.00 1.73969
168.50 1.73991
169.00 1.74022
169.50 1.74063
170.00 1.73971
170.50 1.73804
171.00 1.73533
171.50 1.73388
172.00 1.73304
172.50 1.73234
173.00 1.73175
173.50 1.73092
174.00 1.72962
174.50 1.72846
175.00 1.72777
175.50 1.72741
176.00 1.72716
176.50 1.72689
177.00 1.72676
177.50 1.72676
178.00 1.72690
178.50 1.72703
179.00 1.72729
179.50 1.72768
180.00 1.72820
180.00 1.72820
180.50 1.72768
181.00 1.72729
181.50 1.72703
182.00 1.72690
182.50 1.72676
183.00 1.72676
183.50 1.72689
184.00 1.72716
184.50 1.72741
185.00 1.72777
185.50 1.72846
186.00 1.72962
186.50 1.73092
187.00 1.73175
187.50 1.73234
188.00 1.73304
188.50 1.73388
189.00 1.73533
189.50 1.73804
190.00 1.73971
190.50 1.74063
191.00 1.74022
191.50 1.73991
192.00 1.73969
192.50 1.73956
193.00 1.73806
193.50 1.73606
194.00 1.73378
194.50 1.73058
195.00 1.72747
195.50 1.72446
196.00 1.72155
196.50 1.71880
197.00 1.71626
197.50 1.71401
198.00 1.70985
198.50 1.70542
199.00 1.70106
199.50 1.69679
200.00 1.69289
200.50 1.69023
201.00 1.68764
201.50 1.67932
202.00 1.67014
202.50 1.66100
203.00 1.65190
203.50 1.64345
204.00 1.63705
204.50 1.62354
205.00 1.60781
205.50 1.59334
206.00 1.57891
206.50 1.56453
207.00 1.55018
207.50 1.53455
208.00 1.51773
208.50 1.50084
209.00 1.48349
209.50 1.46619
210.00 1.44895
210.50 1.43177
211.00 1.41493
211.50 1.39950
212.00 1.38437
212.50 1.36544
213.00 1.34653
213.50 1.32763
214.00 1.30876
214.50 1.28991
215.00 1.27139
215.50 1.25371
216.00 1.23184
216.50 1.20902
217.00 1.18711
217.50 1.16527
218.00 1.14340
218.50 1.12076
219.00 1.09815
219.50 1.07548
220.00 1.05282
220.50 1.03022
221.00 1.00784
221.50 0.98632
222.00 0.96484
222.50 0.94339
223.00 0.92278
223.50 0.90245
224.00 0.88239
224.50 0.86276
225.00 0.84337
225.50 0.82523
226.00 0.80684
226.50 0.78924
227.00 0.77277
227.50 0.75634
228.00 0.74094
228.50 0.72639
229.00 0.71184
229.50 0.69506
230.00 0.67986
230.50 0.66774
231.00 0.65532
231.50 0.63976
232.00 0.62416
232.50 0.60851
233.00 0.59274
233.50 0.57359
234.00 0.55691
234.50 0.54006
235.00 0.52306
235.50 0.50590
236.00 0.48722
236.50 0.46768
237.00 0.44469
237.50 0.42153
238.00 0.39820
238.50 0.37327
239.00 0.34413
239.50 0.31484
240.00 0.29129
240.50 0.26830
241.00 0.24520
241.50 0.22200
242.00 0.19564
242.50 0.16908
243.00 0.15058
243.50 0.13363
244.00 0.11971
244.50 0.10579
245.00 0.09187
245.50 0.08013
246.00 0.07147
246.50 0.06279
247.00 0.05435
247.50 0.04778
248.00 0.04121
248.50 0.03595
249.00 0.03243
249.50 0.02890
250.00 0.02538
250.50 0.02184
251.00 0.01855
251.50 0.01651
252.00 0.01486
252.50 0.01322
253.00 0.01158
253.50 0.00995
254.00 0.00844
254.50 0.00758
255.00 0.00673
255.50 0.00587
256.00 0.00513
256.50 0.00440
257.00 0.00391
257.50 0.00352
258.00 0.00315
258.50 0.00278
259.00 0.00241
259.50 0.00204
260.00 0.00184
260.50 0.00164
261.00 0.00144
261.50 0.00129
262.00 0.00115
262.50 0.00101
263.00 0.00090
263.50 0.00080
264.00 0.00071
264.50 0.00065
265.00 0.00059
265.50 0.00053
266.00 0.00048
266.50 0.00043
267.00 0.00040
267.50 0.00038
268.00 0.00035
268.50 0.00033
269.00 0.00032
269.50 0.00031
270.00 0.00030
270.00 0.00030
270.50 0.00031
271.00 0.00032
271.50 0.00033
272.00 0.00035
272.50 0.00038
273.00 0.00040
273.50 0.00043
274.00 0.00048
274.50 0.00053
275.00 0.00059
275.50 0.00065
276.00 0.00071
276.50 0.00080
277.00 0.00090
277.50 0.00101
278.00 0.00115
278.50 0.00129
279.00 0.00144
279.50 0.00164
280.00 0.00184
280.50 0.00204
281.00 0.00241
281.50 0.00278
282.00 0.00315
282.50 0.00352
283.00 0.00391
283.50 0.00440
284.00 0.00513
284.50 0.00587
285.00 0.00673
285.50 0.00758
286.00 0.00844
286.50 0.00995
287.00 0.01158
287.50 0.01322
288.00 0.01486
288.50 0.01651
289.00 0.01855
289.50 0.02184
290.00 0.02538
290.50 0.02890
291.00 0.03243
291.50 0.03595
292.00 0.04121
292.50 0.04778
293.00 0.05435
293.50 0.06279
294.00 0.07147
294.50 0.08013
295.00 0.09187
295.50 0.10579
296.00 0.11971
296.50 0.13363
297.00 0.15058
297.50 0.16908
298.00 0.19564
298.50 0.22200
299.00 0.24520
299.50 0.26830
300.00 0.29129
300.50 0.31484
301.00 0.34413
301.50 0.37327
302.00 0.39820
302.50 0.42153
303.00 0.44469
303.50 0.46768
304.00 0.48722
304.50 0.50590
305.00 0.52306
305.50 0.54006
306.00 0.55691
306.50 0.57359
307.00 0.59274
307.50 0.60851
308.00 0.62416
308.50 0.63976
309.00 0.65532
309.50 0.66774
310.00 0.67986
310.50 0.69506
311.00 0.71184
311.50 0.72639
312.00 0.74094
312.50 0.75634
313.00 0.77277
313.50 0.78924
314.00 0.80684
314.50 0.82523
315.00 0.84337
315.50 0.86276
316.00 0.88239
316.50 0.90245
317.00 0.92278
317.50 0.94339
318.00 0.96484
318.50 0.98632
319.00 1.00784
319.50 1.03022
320.00 1.05282
320.50 1.07548
321.00 1.09815
321.50 1.12076
322.00 1.14340
322.50 1.16527
323.00 1.18711
323.50 1.20902
324.00 1.23184
324.50 1.25371
325.00 1.27139
325.50 1.28991
326.00 1.30876
326.50 1.32763
327.00 1.34653
327.50 1.36544
328.00 1.38437
328.50 1.39950
329.00 1.41493
329.50 1.43177
330.00 1.44895
330.50 1.46619
331.00 1.48349
331.50 1.50084
332.00 1.51773
332.50 1.53455
333.00 1.55018
333.50 1.56453
334.00 1.57891
334.50 1.59334
335.00 1.60781
335.50 1.62354
336.00 1.63705
336.50 1.64345
337.00 1.65190
337.50 1.66100
338.00 1.67014
338.50 1.67932
339.00 1.68764
339.50 1.69023
340.00 1.69289
340.50 1.69679
341.00 1.70106
341.50 1.70542
342.00 1.70985
342.50 1.71401
343.00 1.71626
343.50 1.71880
344.00 1.72155
344.50 1.72446
345.00 1.72747
345.50 1.73058
346.00 1.73378
346.50 1.73606
347.00 1.73806
347.50 1.73956
348.00 1.73969
348.50 1.73991
349.00 1.74022
349.50 1.74063
350.00 1.73971
350.50 1.73804
351.00 1.73533
351.50 1.73388
352.00 1.73304
352.50 1.73234
353.00 1.73175
353.50 1.73092
354.00 1.72962
354.50 1.72846
355.00 1.72777
355.50 1.72741
356.00 1.72716
356.50 1.72689
357.00 1.72676
357.50 1.72676
358.00 1.72690
358.50 1.72703
359.00 1.72729
359.50 1.72768
360.00 1.72820
