phi[deg] B[T]
0.00 1.97324
0.50 1.97321
1.00 1.97333
1.50 1.97361
2.00 1.97404
2.50 1.97468
3.00 1.97493
3.50 1.97603
4.00 1.97726
4.50 1.97864
5.00 1.98015
5.50 1.98180
6.00 1.98376
6.50 1.98585
7.00 1.98809
7.50 1.98886
8.00 1.98961
8.50 1.99085
9.00 1.99268
9.50 1.99463
10.00 1.99670
10.50 1.99628
11.00 1.99509
11.50 1.99461
12.00 1.99457
12.50 1.99464
13.00 1.99481
13.50 1.99485
14.00 1.99347
14.50 1.99121
15.00 1.98645
15.50 1.98239
16.00 1.98012
16.50 1.97793
17.00 1.97582
17.50 1.97263
18.00 1.96601
18.50 1.95944
19.00 1.95321
19.50 1.94932
20.00 1.94547
20.50 1.93981
21.00 1.93135
21.50 1.92291
22.00 1.91333
22.50 1.90232
23.00 1.89132
23.50 1.88033
24.00 1.86619
24.50 1.85133
25.00 1.83649
25.50 1.82154
26.00 1.80396
26.50 1.78674
27.00 1.76964
27.50 1.75256
28.00 1.73458
28.50 1.71543
29.00 1.69612
29.50 1.67571
30.00 1.65532
30.50 1.63495
31.00 1.61279
31.50 1.58967
32.00 1.56864
32.50 1.54760
33.00 1.52656
33.50 1.50434
34.00 1.48057
34.50 1.45679
35.00 1.43224
35.50 1.40685
36.00 1.38146
36.50 1.35608
37.00 1.33044
37.50 1.30423
38.00 1.27865
38.50 1.25308
39.00 1.22751
39.50 1.20179
40.00 1.17599
40.50 1.15123
41.00 1.12648
41.50 1.10173
42.00 1.07670
42.50 1.05268
43.00 1.02934
43.50 1.00612
44.00 0.98320
44.50 0.96028
45.00 0.93713
45.50 0.91497
46.00 0.89331
46.50 0.87164
47.00 0.85076
47.50 0.83055
48.00 0.80926
48.50 0.78716
49.00 0.76723
49.50 0.74761
50.00 0.72763
50.50 0.70648
51.00 0.68749
51.50 0.66845
52.00 0.64936
52.50 0.63011
53.00 0.60792
53.50 0.58747
54.00 0.56776
54.50 0.54798
55.00 0.52814
55.50 0.50801
56.00 0.48600
56.50 0.46605
57.00 0.44603
57.50 0.42592
58.00 0.40578
58.50 0.38643
59.00 0.36699
59.50 0.34557
60.00 0.32408
60.50 0.30253
61.00 0.28092
61.50 0.25972
62.00 0.24396
62.50 0.22836
63.00 0.21271
63.50 0.19702
64.00 0.18127
64.50 0.16475
65.00 0.15390
65.50 0.14326
66.00 0.13261
66.50 0.12190
67.00 0.11109
67.50 0.10025
68.00 0.09163
68.50 0.08566
69.00 0.07969
69.50 0.07371
70.00 0.06762
70.50 0.06152
71.00 0.05542
71.50 0.04968
72.00 0.04614
72.50 0.04282
73.00 0.03951
73.50 0.03620
74.00 0.03290
74.50 0.02960
75.00 0.02723
75.50 0.02541
76.00 0.02358
76.50 0.02175
77.00 0.01993
77.50 0.01804
78.00 0.01615
78.50 0.01492
79.00 0.01395
79.50 0.01297
80.00 0.01200
80.50 0.01102
81.00 0.01005
81.50 0.00910
82.00 0.00842
82.50 0.00786
83.00 0.00733
83.50 0.00680
84.00 0.00627
84.50 0.00580
85.00 0.00552
85.50 0.00524
86.00 0.00496
86.50 0.00467
87.00 0.00438
87.50 0.00428
88.00 0.00417
88.50 0.00405
89.00 0.00393
89.50 0.00381
90.00 0.00370
90.00 0.00370
90.50 0.00381
91.00 0.00393
91.50 0.00405
92.00 0.00417
92.50 0.00428
93.00 0.00438
93.50 0.00467
94.00 0.00496
94.50 0.00524
95.00 0.00552
95.50 0.00580
96.00 0.00627
96.50 0.00680
97.00 0.00733
97.50 0.00786
98.00 0.00842
98.50 0.00910
99.00 0.01005
99.50 0.01102
100.00 0.01200
100.50 0.01297
101.00 0.01395
101.50 0.01492
102.00 0.01615
102.50 0.01804
103.00 0.01993
103.50 0.02175
104.00 0.02358
104.50 0.02541
105.00 0.02723
105.50 0.02960
106.00 0.03290
106.50 0.03620
107.00 0.03951
107.50 0.04282
108.00 0.04614
108.50 0.04968
109.00 0.05542
109.50 0.06152
110.00 0.06762
110.50 0.07371
111.00 0.07969
111.50 0.08566
112.00 0.09163
112.50 0.10025
113.00 0.11109
113.50 0.12190
114.00 0.13261
114.50 0.14326
115.00 0.15390
115.50 0.16475
116.00 0.18127
116.50 0.19702
117.00 0.21271
117.50 0.22836
118.00 0.24396
118.50 0.25972
119.00 0.28092
119.50 0.30253
120.00 0.32408
120.50 0.34557
121.00 0.36699
121.50 0.38643
122.00 0.40578
122.50 0.42592
123.00 0.44603
123.50 0.46605
124.00 0.48600
124.50 0.50801
125.00 0.52814
125.50 0.54798
126.00 0.56776
126.50 0.58747
127.00 0.60792
127.50 0.63011
128.00 0.64936
128.50 0.66845
129.00 0.68749
129.50 0.70648
130.00 0.72763
130.50 0.74761
131.00 0.76723
131.50 0.78716
132.00 0.80926
132.50 0.83055
133.00 0.85076
133.50 0.87164
134.00 0.89331
134.50 0.91497
135.00 0.93713
135.50 0.96028
136.00 0.98320
136.50 1.00612
137.00 1.02934
137.50 1.05268
138.00 1.07670
138.50 1.10173
139.00 1.12648
139.50 1.15123
140.00 1.17599
140.50 1.20179
141.00 1.22751
141.50 1.25308
142.00 1.27865
142.50 1.30423
143.00 1.33044
143.50 1.35608
144.00 1.38146
144.50 1.40685
145.00 1.43224
145.50 1.45679
146.00 1.48057
146.50 1.50434
147.00 1.52656
147.50 1.54760
148.00 1.56864
148.50 1.58967
149.00 1.61279
149.50 1.63495
150.00 1.65532
150.50 1.67571
151.00 1.69612
151.50 1.71543
152.00 1.73458
152.50 1.75256
153.00 1.76964
153.50 1.78674
154.00 1.80396
154.50 1.82154
155.00 1.83649
155.50 1.85133
156.00 1.86619
156.50 1.88033
157.00 1.89132
157.50 1.90232
158.00 1.91333
158.50 1.92291
159.00 1.93135
159.50 1.93981
160.00 1.94547
160.50 1.94932
161.00 1.95321
161.50 1.95944
162.00 1.96601
162.50 1.97263
163.00 1.97582
163.50 1.97793
164.00 1.98012
164.50 1.98239
165.00 1.98645
165.50 1.99121
166.00 1.99347
166.50 1.99485
167.00 1.99481
167.50 1.99464
168.00 1.99457
168.50 1.99461
169.00 1.99509
169.50 1.99628
170.00 1.99670
170.50 1.99463
171.00 1.99268
171.50 1.99085
172.00 1.98961
172.50 1.98886
173.00 1.98809
173.50 1.98585
174.00 1.98376
174.50 1.98180
175.00 1.98015
175.50 1.97864
176.00 1.97726
176.50 1.97603
177.00 1.97493
177.50 1.97468
178.00 1.97404
178.50 1.97361
179.00 1.97333
179.50 1.97321
180.00 1.97324
180.00 1.97324
180.50 1.97321
181.00 1.97333
181.50 1.97361
182.00 1.97404
182.50 1.97468
183.00 1.97493
183.50 1.97603
184.00 1.97726
184.50 1.97864
185.00 1.98015
185.50 1.98180
186.00 1.98376
186.50 1.98585
187.00 1.98809
187.50 1.98886
188.00 1.98961
188.50 1.99085
189.00 1.99268
189.50 1.99463
190.00 1.99670
190.50 1.99628
191.00 1.99509
191.50 1.99461
192.00 1.99457
192.50 1.99464
193.00 1.99481
193.50 1.99485
194.00 1.99347
194.50 1.99121
195.00 1.98645
195.50 1.98239
196.00 1.98012
196.50 1.97793
197.00 1.97582
197.50 1.97263
198.00 1.96601
198.50 1.95944
199.00 1.95321
199.50 1.94932
200.00 1.94547
200.50 1.93981
201.00 1.93135
201.50 1.92291
202.00 1.91333
202.50 1.90232
203.00 1.89132
203.50 1.88033
204.00 1.86619
204.50 1.85133
205.00 1.83649
205.50 1.82154
206.00 1.80396
206.50 1.78674
207.00 1.76964
207.50 1.75256
208.00 1.73458
208.50 1.71543
209.00 1.69612
209.50 1.67571
210.00 1.65532
210.50 1.63495
211.00 1.61279
211.50 1.58967
212.00 1.56864
212.50 1.54760
213.00 1.52656
213.50 1.50434
214.00 1.48057
214.50 1.45679
215.00 1.43224
215.50 1.40685
216.00 1.38146
216.50 1.35608
217.00 1.33044
217.50 1.30423
218.00 1.27865
218.50 1.25308
219.00 1.22751
219.50 1.20179
220.00 1.17599
220.50 1.15123
221.00 1.12648
221.50 1.10173
222.00 1.07670
222.50 1.05268
223.00 1.02934
223.50 1.00612
224.00 0.98320
224.50 0.96028
225.00 0.93713
225.50 0.91497
226.00 0.89331
226.50 0.87164
227.00 0.85076
227.50 0.83055
228.00 0.80926
228.50 0.78716
229.00 0.76723
229.50 0.74761
230.00 0.72763
230.50 0.70648
231.00 0.68749
231.50 0.66845
232.00 0.64936
232.50 0.63011
233.00 0.60792
233.50 0.58747
234.00 0.56776
234.50 0.54798
235.00 0.52814
235.50 0.50801
236.00 0.48600
236.50 0.46605
237.00 0.44603
237.50 0.42592
238.00 0.40578
238.50 0.38643
239.00 0.36699
239.50 0.34557
240.00 0.32408
240.50 0.30253
241.00 0.28092
241.50 0.25972
242.00 0.24396
242.50 0.22836
243.00 0.21271
243.50 0.19702
244.00 0.18127
244.50 0.16475
245.00 0.15390
245.50 0.14326
246.00 0.13261
246.50 0.12190
247.00 0.11109
247.50 0.10025
248.00 0.09163
248.50 0.08566
249.00 0.07969
249.50 0.07371
250.00 0.06762
250.50 0.06152
251.00 0.05542
251.50 0.04968
252.00 0.04614
252.50 0.04282
253.00 0.03951
253.50 0.03620
254.00 0.03290
254.50 0.02960
255.00 0.02723
255.50 0.02541
256.00 0.02358
256.50 0.02175
257.00 0.01993
257.50 0.01804
258.00 0.01615
258.50 0.01492
259.00 0.01395
259.50 0.01297
260.00 0.01200
260.50 0.01102
261.00 0.01005
261.50 0.00910
262.00 0.00842
262.50 0.00786
263.00 0.00733
263.50 0.00680
264.00 0.00627
264.50 0.00580
265.00 0.00552
265.50 0.00524
266.00 0.00496
266.50 0.00467
267.00 0.00438
267.50 0.00428
268.00 0.00417
268.50 0.00405
269.00 0.00393
269.50 0.00381
270.00 0.00370
270.00 0.00370
270.50 0.00381
271.00 0.00393
271.50 0.00405
272.00 0.00417
272.50 0.00428
273.00 0.00438
273.50 0.00467
274.00 0.00496
274.50 0.00524
275.00 0.00552
275.50 0.00580
276.00 0.00627
276.50 0.00680
277.00 0.00733
277.50 0.00786
278.00 0.00842
278.50 0.00910
279.00 0.01005
279.50 0.01102
280.00 0.01200
280.50 0.01297
281.00 0.01395
281.50 0.01492
282.00 0.01615
282.50 0.01804
283.00 0.01993
283.50 0.02175
284.00 0.02358
284.50 0.02541
285.00 0.02723
285.50 0.02960
286.00 0.03290
286.50 0.03620
287.00 0.03951
287.50 0.04282
288.00 0.04614
288.50 0.04968
289.00 0.05542
289.50 0.06152
290.00 0.06762
290.50 0.07371
291.00 0.07969
291.50 0.08566
292.00 0.09163
292.50 0.10025
293.00 0.11109
293.50 0.12190
294.00 0.13261
294.50 0.14326
295.00 0.15390
295.50 0.16475
296.00 0.18127
296.50 0.19702
297.00 0.21271
297.50 0.22836
298.00 0.24396
298.50 0.25972
299.00 0.28092
299.50 0.30253
300.00 0.32408
300.50 0.34557
301.00 0.36699
301.50 0.38643
302.00 0.40578
302.50 0.42592
303.00 0.44603
303.50 0.46605
304.00 0.48600
304.50 0.50801
305.00 0.52814
305.50 0.54798
306.00 0.56776
306.50 0.58747
307.00 0.60792
307.50 0.63011
308.00 0.64936
308.50 0.66845
309.00 0.68749
309.50 0.70648
310.00 0.72763
310.50 0.74761
311.00 0.76723
311.50 0.78716
312.00 0.80926
312.50 0.83055
313.00 0.85076
313.50 0.87164
314.00 0.89331
314.50 0.91497
315.00 0.93713
315.50 0.96028
316.00 0.98320
316.50 1.00612
317.00 1.02934
317.50 1.05268
318.00 1.07670
318.50 1.10173
319.00 1.12648
319.50 1.15123
320.00 1.17599
320.50 1.20179
321.00 1.22751
321.50 1.25308
322.00 1.27865
322.50 1.30423
323.00 1.33044
323.50 1.35608
324.00 1.38146
324.50 1.40685
325.00 1.43224
325.50 1.45679
326.00 1.48057
326.50 1.50434
327.00 1.52656
327.50 1.54760
328.00 1.56864
328.50 1.58967
329.00 1.61279
329.50 1.63495
330.00 1.65532
330.50 1.67571
331.00 1.69612
331.50 1.71543
332.00 1.73458
332.50 1.75256
333.00 1.76964
333.50 1.78674
334.00 1.80396
334.50 1.82154
335.00 1.83649
335.50 1.85133
336.00 1.86619
336.50 1.88033
337.00 1.89132
337.50 1.90232
338.00 1.91333
338.50 1.92291
339.00 1.93135
339.50 1.93981
340.00 1.94547
340.50 1.94932
341.00 1.95321
341.50 1.95944
342.00 1.96601
342.50 1.97263
343.00 1.97582
343.50 1.97793
344.00 1.98012
344.50 1.98239
345.00 1.98645
345.50 1.99121
346.00 1.99347
346.50 1.99485
347.00 1.99481
347.50 1.99464
348.00 1.99457
348.50 1.99461
349.00 1.99509
349.50 1.99628
350.00 1.99670
350.50 1.99463
351.00 1.99268
351.50 1.99085
352.00 1.98961
352.50 1.98886
353.00 1.98809
353.50 1.98585
354.00 1.98376
354.50 1.98180
355.00 1.98015
355.50 1.97864
356.00 1.97726
356.50 1.97603
357.00 1.97493
357.50 1.97468
358.00 1.97404
358.50 1.97361
359.00 1.97333
359.50 1.97321
360.00 1.97324
