phi[deg] B[T]
0.00 1.71281
0.50 1.71219
1.00 1.71174
1.50 1.71192
2.00 1.71221
2.50 1.71188
3.00 1.71146
3.50 1.71118
4.00 1.71124
4.50 1.71141
5.00 1.71036
5.50 1.70943
6.00 1.70862
6.50 1.70802
7.00 1.70812
7.50 1.70832
8.00 1.70881
8.50 1.70862
9.00 1.70746
9.50 1.70555
10.00 1.70373
10.50 1.70199
11.00 1.70034
11.50 1.69878
12.00 1.69730
12.50 1.69592
13.00 1.69489
13.50 1.69427
14.00 1.69266
14.50 1.69057
15.00 1.68846
15.50 1.68388
16.00 1.67935
16.50 1.67486
17.00 1.67044
17.50 1.66606
18.00 1.66144
18.50 1.65666
19.00 1.65194
19.50 1.64564
20.00 1.63588
20.50 1.62614
21.00 1.61643
21.50 1.60676
22.00 1.59711
22.50 1.58966
23.00 1.58296
23.50 1.57435
24.00 1.56414
24.50 1.54942
25.00 1.53466
25.50 1.51985
26.00 1.50500
26.50 1.49011
27.00 1.47517
27.50 1.46127
28.00 1.44901
28.50 1.43393
29.00 1.41716
29.50 1.39591
30.00 1.37330
30.50 1.35060
31.00 1.32779
31.50 1.30489
32.00 1.28188
32.50 1.26091
33.00 1.24366
33.50 1.22020
34.00 1.19433
34.50 1.16560
35.00 1.13668
35.50 1.10758
36.00 1.07830
36.50 1.04883
37.00 1.02020
37.50 0.99275
38.00 0.96007
38.50 0.92570
39.00 0.89113
39.50 0.85714
40.00 0.82299
40.50 0.78833
41.00 0.75065
41.50 0.71280
42.00 0.67598
42.50 0.64141
43.00 0.60506
43.50 0.56545
44.00 0.52736
44.50 0.49345
45.00 0.45943
45.50 0.42792
46.00 0.39632
46.50 0.36336
47.00 0.33014
47.50 0.30132
48.00 0.27581
48.50 0.25023
49.00 0.22591
49.50 0.20299
50.00 0.18322
50.50 0.16886
51.00 0.15436
51.50 0.13946
52.00 0.12456
52.50 0.10965
53.00 0.09987
53.50 0.09078
54.00 0.08219
54.50 0.07516
55.00 0.06813
55.50 0.06112
56.00 0.05411
56.50 0.04780
57.00 0.04349
57.50 0.03917
58.00 0.03484
58.50 0.03150
59.00 0.02875
59.50 0.02601
60.00 0.02327
60.50 0.02076
61.00 0.01867
61.50 0.01658
62.00 0.01491
62.50 0.01383
63.00 0.01274
63.50 0.01165
64.00 0.01057
64.50 0.00948
65.00 0.00840
65.50 0.00729
66.00 0.00654
66.50 0.00608
67.00 0.00561
67.50 0.00514
68.00 0.00467
68.50 0.00420
69.00 0.00374
69.50 0.00327
70.00 0.00280
70.50 0.00259
71.00 0.00238
71.50 0.00217
72.00 0.00197
72.50 0.00176
73.00 0.00159
73.50 0.00148
74.00 0.00137
74.50 0.00125
75.00 0.00114
75.50 0.00103
76.00 0.00091
76.50 0.00083
77.00 0.00078
77.50 0.00072
78.00 0.00067
78.50 0.00062
79.00 0.00056
79.50 0.00051
80.00 0.00045
80.50 0.00041
81.00 0.00039
81.50 0.00036
82.00 0.00033
82.50 0.00030
83.00 0.00027
83.50 0.00025
84.00 0.00023
84.50 0.00021
85.00 0.00019
85.50 0.00017
86.00 0.00016
86.50 0.00014
87.00 0.00013
87.50 0.00011
88.00 0.00010
88.50 0.00009
89.00 0.00008
89.50 0.00007
90.00 0.00007
90.00 0.00007
90.50 0.00007
91.00 0.00008
91.50 0.00009
92.00 0.00010
92.50 0.00011
93.00 0.00013
93.50 0.00014
94.00 0.00016
94.50 0.00017
95.00 0.00019
95.50 0.00021
96.00 0.00023
96.50 0.00025
97.00 0.00027
97.50 0.00030
98.00 0.00033
98.50 0.00036
99.00 0.00039
99.50 0.00041
100.00 0.00045
100.50 0.00051
101.00 0.00056
101.50 0.00062
102.00 0.00067
102.50 0.00072
103.00 0.00078
103.50 0.00083
104.00 0.00091
104.50 0.00103
105.00 0.00114
105.50 0.00125
106.00 0.00137
106.50 0.00148
107.00 0.00159
107.50 0.00176
108.00 0.00197
108.50 0.00217
109.00 0.00238
109.50 0.00259
110.00 0.00280
110.50 0.00327
111.00 0.00374
111.50 0.00420
112.00 0.00467
112.50 0.00514
113.00 0.00561
113.50 0.00608
114.00 0.00654
114.50 0.00729
115.00 0.00840
115.50 0.00948
116.00 0.01057
116.50 0.01165
117.00 0.01274
117.50 0.01383
118.00 0.01491
118.50 0.01658
119.00 0.01867
119.50 0.02076
120.00 0.02327
120.50 0.02601
121.00 0.02875
121.50 0.03150
122.00 0.03484
122.50 0.03917
123.00 0.04349
123.50 0.04780
124.00 0.05411
124.50 0.06112
125.00 0.06813
125.50 0.07516
126.00 0.08219
126.50 0.09078
127.00 0.09987
127.50 0.10965
128.00 0.12456
128.50 0.13946
129.00 0.15436
129.50 0.16886
130.00 0.18322
130.50 0.20299
131.00 0.22591
131.50 0.25023
132.00 0.27581
132.50 0.30132
133.00 0.33014
133.50 0.36336
134.00 0.39632
134.50 0.42792
135.00 0.45943
135.50 0.49345
136.00 0.52736
136.50 0.56545
137.00 0.60506
137.50 0.64141
138.00 0.67598
138.50 0.71280
139.00 0.75065
139.50 0.78833
140.00 0.82299
140.50 0.85714
141.00 0.89113
141.50 0.92570
142.00 0.96007
142.50 0.99275
143.00 1.02020
143.50 1.04883
144.00 1.07830
144.50 1.10758
145.00 1.13668
145.50 1.16560
146.00 1.19433
146.50 1.22020
147.00 1.24366
147.50 1.26091
148.00 1.28188
148.50 1.30489
149.00 1.32779
149.50 1.35060
150.00 1.37330
150.50 1.39591
151.00 1.41716
151.50 1.43393
152.00 1.44901
152.50 1.46127
153.00 1.47517
153.50 1.49011
154.00 1.50500
154.50 1.51985
155.00 1.53466
155.50 1.54942
156.00 1.56414
156.50 1.57435
157.00 1.58296
157.50 1.58966
158.00 1.59711
158.50 1.60676
159.00 1.61643
159.50 1.62614
160.00 1.63588
160.50 1.64564
161.00 1.65194
161.50 1.65666
162.00 1.66144
162.50 1.66606
163.00 1.67044
163.50 1.67486
164.00 1.67935
164.50 1.68388
165.00 1.68846
165.50 1.69057
166.00 1.69266
166.50 1.69427
167.00 1.69489
167.50 1.69592
168.00 1.69730
168.50 1.69878
169.00 1.70034
169.50 1.70199
170.00 1.70373
170.50 1.70555
171.00 1.70746
171.50 1.70862
172.00 1.70881
172.50 1.70832
173.00 1.70812
173.50 1.70802
174.00 1.70862
174.50 1.70943
175.00 1.71036
175.50 1.71141
176.00 1.71124
176.50 1.71118
177.00 1.71146
177.50 1.71188
178.00 1.71221
178.50 1.71192
179.00 1.71174
179.50 1.71219
180.00 1.71281
180.00 1.71281
180.50 1.71219
181.00 1.71174
181.50 1.71192
182.00 1.71221
182.50 1.71188
183.00 1.71146
183.50 1.71118
184.00 1.71124
184.50 1.71141
185.00 1.71036
185.50 1.70943
186.00 1.70862
186.50 1.70802
187.00 1.70812
187.50 1.70832
188.00 1.70881
188.50 1.70862
189.00 1.70746
189.50 1.70555
190.00 1.70373
190.50 1.70199
191.00 1.70034
191.50 1.69878
192.00 1.69730
192.50 1.69592
193.00 1.69489
193.50 1.69427
194.00 1.69266
194.50 1.69057
195.00 1.68846
195.50 1.68388
196.00 1.67935
196.50 1.67486
197.00 1.67044
197.50 1.66606
198.00 1.66144
198.50 1.65666
199.00 1.65194
199.50 1.64564
200.00 1.63588
200.50 1.62614
201.00 1.61643
201.50 1.60676
202.00 1.59711
202.50 1.58966
203.00 1.58296
203.50 1.57435
204.00 1.56414
204.50 1.54942
205.00 1.53466
205.50 1.51985
206.00 1.50500
206.50 1.49011
207.00 1.47517
207.50 1.46127
208.00 1.44901
208.50 1.43393
209.00 1.41716
209.50 1.39591
210.00 1.37330
210.50 1.35060
211.00 1.32779
211.50 1.30489
212.00 1.28188
212.50 1.26091
213.00 1.24366
213.50 1.22020
214.00 1.19433
214.50 1.16560
215.00 1.13668
215.50 1.10758
216.00 1.07830
216.50 1.04883
217.00 1.02020
217.50 0.99275
218.00 0.96007
218.50 0.92570
219.00 0.89113
219.50 0.85714
220.00 0.82299
220.50 0.78833
221.00 0.75065
221.50 0.71280
222.00 0.67598
222.50 0.64141
223.00 0.60506
223.50 0.56545
224.00 0.52736
224.50 0.49345
225.00 0.45943
225.50 0.42792
226.00 0.39632
226.50 0.36336
227.00 0.33014
227.50 0.30132
228.00 0.27581
228.50 0.25023
229.00 0.22591
229.50 0.20299
230.00 0.18322
230.50 0.16886
231.00 0.15436
231.50 0.13946
232.00 0.12456
232.50 0.10965
233.00 0.09987
233.50 0.09078
234.00 0.08219
234.50 0.07516
235.00 0.06813
235.50 0.06112
236.00 0.05411
236.50 0.04780
237.00 0.04349
237.50 0.03917
238.00 0.03484
238.50 0.03150
239.00 0.02875
239.50 0.02601
240.00 0.02327
240.50 0.02076
241.00 0.01867
241.50 0.01658
242.00 0.01491
242.50 0.01383
243.00 0.01274
243.50 0.01165
244.00 0.01057
244.50 0.00948
245.00 0.00840
245.50 0.00729
246.00 0.00654
246.50 0.00608
247.00 0.00561
247.50 0.00514
248.00 0.00467
248.50 0.00420
249.00 0.00374
249.50 0.00327
250.00 0.00280
250.50 0.00259
251.00 0.00238
251.50 0.00217
252.00 0.00197
252.50 0.00176
253.00 0.00159
253.50 0.00148
254.00 0.00137
254.50 0.00125
255.00 0.00114
255.50 0.00103
256.00 0.00091
256.50 0.00083
257.00 0.00078
257.50 0.00072
258.00 0.00067
258.50 0.00062
259.00 0.00056
259.50 0.00051
260.00 0.00045
260.50 0.00041
261.00 0.00039
261.50 0.00036
262.00 0.00033
262.50 0.00030
263.00 0.00027
263.50 0.00025
264.00 0.00023
264.50 0.00021
265.00 0.00019
265.50 0.00017
266.00 0.00016
266.50 0.00014
267.00 0.00013
267.50 0.00011
268.00 0.00010
268.50 0.00009
269.00 0.00008
269.50 0.00007
270.00 0.00007
270.00 0.00007
270.50 0.00007
271.00 0.00008
271.50 0.00009
272.00 0.00010
272.50 0.00011
273.00 0.00013
273.50 0.00014
274.00 0.00016
274.50 0.00017
275.00 0.00019
275.50 0.00021
276.00 0.00023
276.50 0.00025
277.00 0.00027
277.50 0.00030
278.00 0.00033
278.50 0.00036
279.00 0.00039
279.50 0.00041
280.00 0.00045
280.50 0.00051
281.00 0.00056
281.50 0.00062
282.00 0.00067
282.50 0.00072
283.00 0.00078
283.50 0.00083
284.00 0.00091
284.50 0.00103
285.00 0.00114
285.50 0.00125
286.00 0.00137
286.50 0.00148
287.00 0.00159
287.50 0.00176
288.00 0.00197
288.50 0.00217
289.00 0.00238
289.50 0.00259
290.00 0.00280
290.50 0.00327
291.00 0.00374
291.50 0.00420
292.00 0.00467
292.50 0.00514
293.00 0.00561
293.50 0.00608
294.00 0.00654
294.50 0.00729
295.00 0.00840
295.50 0.00948
296.00 0.01057
296.50 0.01165
297.00 0.01274
297.50 0.01383
298.00 0.01491
298.50 0.01658
299.00 0.01867
299.50 0.02076
300.00 0.02327
300.50 0.02601
301.00 0.02875
301.50 0.03150
302.00 0.03484
302.50 0.03917
303.00 0.04349
303.50 0.04780
304.00 0.05411
304.50 0.06112
305.00 0.06813
305.50 0.07516
306.00 0.08219
306.50 0.09078
307.00 0.09987
307.50 0.10965
308.00 0.12456
308.50 0.13946
309.00 0.15436
309.50 0.16886
310.00 0.18322
310.50 0.20299
311.00 0.22591
311.50 0.25023
312.00 0.27581
312.50 0.30132
313.00 0.33014
313.50 0.36336
314.00 0.39632
314.50 0.42792
315.00 0.45943
315.50 0.49345
316.00 0.52736
316.50 0.56545
317.00 0.60506
317.50 0.64141
318.00 0.67598
318.50 0.71280
319.00 0.75065
319.50 0.78833
320.00 0.82299
320.50 0.85714
321.00 0.89113
321.50 0.92570
322.00 0.96007
322.50 0.99275
323.00 1.02020
323.50 1.04883
324.00 1.07830
324.50 1.10758
325.00 1.13668
325.50 1.16560
326.00 1.19433
326.50 1.22020
327.00 1.24366
327.50 1.26091
328.00 1.28188
328.50 1.30489
329.00 1.32779
329.50 1.35060
330.00 1.37330
330.50 1.39591
331.00 1.41716
331.50 1.43393
332.00 1.44901
332.50 1.46127
333.00 1.47517
333.50 1.49011
334.00 1.50500
334.50 1.51985
335.00 1.53466
335.50 1.54942
336.00 1.56414
336.50 1.57435
337.00 1.58296
337.50 1.58966
338.00 1.59711
338.50 1.60676
339.00 1.61643
339.50 1.62614
340.00 1.63588
340.50 1.64564
341.00 1.65194
341.50 1.65666
342.00 1.66144
342.50 1.66606
343.00 1.67044
343.50 1.67486
344.00 1.67935
344.50 1.68388
345.00 1.68846
345.50 1.69057
346.00 1.69266
346.50 1.69427
347.00 1.69489
347.50 1.69592
348.00 1.69730
348.50 1.69878
349.00 1.70034
349.50 1.70199
350.00 1.70373
350.50 1.70555
351.00 1.70746
351.50 1.70862
352.00 1.70881
352.50 1.70832
353.00 1.70812
353.50 1.70802
354.00 1.70862
354.50 1.70943
355.00 1.71036
355.50 1.71141
356.00 1.71124
356.50 1.71118
357.00 1.71146
357.50 1.71188
358.00 1.71221
358.50 1.71192
359.00 1.71174
359.50 1.71219
360.00 1.71281
