phi[deg] B[T]
0.00 1.99127
0.50 1.99119
1.00 1.99126
1.50 1.99148
2.00 1.99186
2.50 1.99246
3.00 1.99261
3.50 1.99361
4.00 1.99475
4.50 1.99603
5.00 1.99745
5.50 1.99901
6.00 2.00078
6.50 2.00269
7.00 2.00473
7.50 2.00534
8.00 2.00593
8.50 2.00694
9.00 2.00846
9.50 2.01011
10.00 2.01188
10.50 2.01118
11.00 2.00973
11.50 2.00881
12.00 2.00823
12.50 2.00777
13.00 2.00741
13.50 2.00695
14.00 2.00527
14.50 2.00272
15.00 1.99771
15.50 1.99330
16.00 1.99045
16.50 1.98767
17.00 1.98498
17.50 1.98137
18.00 1.97476
18.50 1.96822
19.00 1.96198
19.50 1.95774
20.00 1.95355
20.50 1.94783
21.00 1.93971
21.50 1.93164
22.00 1.92253
22.50 1.91213
23.00 1.90176
23.50 1.89142
24.00 1.87839
24.50 1.86478
25.00 1.85120
25.50 1.83752
26.00 1.82131
26.50 1.80563
27.00 1.79015
27.50 1.77470
28.00 1.75831
28.50 1.74071
29.00 1.72301
29.50 1.70450
30.00 1.68602
30.50 1.66756
31.00 1.64715
31.50 1.62570
32.00 1.60652
32.50 1.58735
33.00 1.56818
33.50 1.54768
34.00 1.52544
34.50 1.50321
35.00 1.48021
35.50 1.45639
36.00 1.43257
36.50 1.40877
37.00 1.38458
37.50 1.35949
38.00 1.33500
38.50 1.31052
39.00 1.28604
39.50 1.26130
40.00 1.23620
40.50 1.21216
41.00 1.18813
41.50 1.16407
42.00 1.13936
42.50 1.11569
43.00 1.09274
43.50 1.06981
44.00 1.04695
44.50 1.02408
45.00 1.00099
45.50 0.97863
46.00 0.95683
46.50 0.93501
47.00 0.91389
47.50 0.89336
48.00 0.87163
48.50 0.84898
49.00 0.82847
49.50 0.80825
50.00 0.78763
50.50 0.76568
51.00 0.74584
51.50 0.72594
52.00 0.70598
52.50 0.68583
53.00 0.66240
53.50 0.64068
54.00 0.61968
54.50 0.59860
55.00 0.57745
55.50 0.55597
56.00 0.53230
56.50 0.51072
57.00 0.48906
57.50 0.46730
58.00 0.44551
58.50 0.42455
59.00 0.40350
59.50 0.38003
60.00 0.35647
60.50 0.33285
61.00 0.30915
61.50 0.28591
62.00 0.26859
62.50 0.25146
63.00 0.23427
63.50 0.21702
64.00 0.19972
64.50 0.18150
65.00 0.16956
65.50 0.15784
66.00 0.14611
66.50 0.13432
67.00 0.12241
67.50 0.11048
68.00 0.10100
68.50 0.09442
69.00 0.08783
69.50 0.08124
70.00 0.07453
70.50 0.06781
71.00 0.06109
71.50 0.05476
72.00 0.05085
72.50 0.04720
73.00 0.04355
73.50 0.03991
74.00 0.03627
74.50 0.03263
75.00 0.03002
75.50 0.02801
76.00 0.02599
76.50 0.02399
77.00 0.02198
77.50 0.01989
78.00 0.01781
78.50 0.01646
79.00 0.01538
79.50 0.01431
80.00 0.01324
80.50 0.01216
81.00 0.01109
81.50 0.01004
82.00 0.00929
82.50 0.00867
83.00 0.00809
83.50 0.00751
84.00 0.00693
84.50 0.00641
85.00 0.00610
85.50 0.00579
86.00 0.00549
86.50 0.00517
87.00 0.00484
87.50 0.00473
88.00 0.00461
88.50 0.00448
89.00 0.00435
89.50 0.00422
90.00 0.00409
90.00 0.00409
90.50 0.00422
91.00 0.00435
91.50 0.00448
92.00 0.00461
92.50 0.00473
93.00 0.00484
93.50 0.00517
94.00 0.00549
94.50 0.00579
95.00 0.00610
95.50 0.00641
96.00 0.00693
96.50 0.00751
97.00 0.00809
97.50 0.00867
98.00 0.00929
98.50 0.01004
99.00 0.01109
99.50 0.01216
100.00 0.01324
100.50 0.01431
101.00 0.01538
101.50 0.01646
102.00 0.01781
102.50 0.01989
103.00 0.02198
103.50 0.02399
104.00 0.02599
104.50 0.02801
105.00 0.03002
105.50 0.03263
106.00 0.03627
106.50 0.03991
107.00 0.04355
107.50 0.04720
108.00 0.05085
108.50 0.05476
109.00 0.06109
109.50 0.06781
110.00 0.07453
110.50 0.08124
111.00 0.08783
111.50 0.09442
112.00 0.10100
112.50 0.11048
113.00 0.12241
113.50 0.13432
114.00 0.14611
114.50 0.15784
115.00 0.16956
115.50 0.18150
116.00 0.19972
116.50 0.21702
117.00 0.23427
117.50 0.25146
118.00 0.26859
118.50 0.28591
119.00 0.30915
119.50 0.33285
120.00 0.35647
120.50 0.38003
121.00 0.40350
121.50 0.42455
122.00 0.44551
122.50 0.46730
123.00 0.48906
123.50 0.51072
124.00 0.53230
124.50 0.55597
125.00 0.57745
125.50 0.59860
126.00 0.61968
126.50 0.64068
127.00 0.66240
127.50 0.68583
128.00 0.70598
128.50 0.72594
129.00 0.74584
129.50 0.76568
130.00 0.78763
130.50 0.80825
131.00 0.82847
131.50 0.84898
132.00 0.87163
132.50 0.89336
133.00 0.91389
133.50 0.93501
134.00 0.95683
134.50 0.97863
135.00 1.00099
135.50 1.02408
136.00 1.04695
136.50 1.06981
137.00 1.09274
137.50 1.11569
138.00 1.13936
138.50 1.16407
139.00 1.18813
139.50 1.21216
140.00 1.23620
140.50 1.26130
141.00 1.28604
141.50 1.31052
142.00 1.33500
142.50 1.35949
143.00 1.38458
143.50 1.40877
144.00 1.43257
144.50 1.45639
145.00 1.48021
145.50 1.50321
146.00 1.52544
146.50 1.54768
147.00 1.56818
147.50 1.58735
148.00 1.60652
148.50 1.62570
149.00 1.64715
149.50 1.66756
150.00 1.68602
150.50 1.70450
151.00 1.72301
151.50 1.74071
152.00 1.75831
152.50 1.77470
153.00 1.79015
153.50 1.80563
154.00 1.82131
154.50 1.83752
155.00 1.85120
155.50 1.86478
156.00 1.87839
156.50 1.89142
157.00 1.90176
157.50 1.91213
158.00 1.92253
158.50 1.93164
159.00 1.93971
159.50 1.94783
160.00 1.95355
160.50 1.95774
161.00 1.96198
161.50 1.96822
162.00 1.97476
162.50 1.98137
163.00 1.98498
163.50 1.98767
164.00 1.99045
164.50 1.99330
165.00 1.99771
165.50 2.00272
166.00 2.00527
166.50 2.00695
167.00 2.00741
167.50 2.00777
168.00 2.00823
168.50 2.00881
169.00 2.00973
169.50 2.01118
170.00 2.01188
170.50 2.01011
171.00 2.00846
171.50 2.00694
172.00 2.00593
172.50 2.00534
173.00 2.00473
173.50 2.00269
174.00 2.00078
174.50 1.99901
175.00 1.99745
175.50 1.99603
176.00 1.99475
176.50 1.99361
177.00 1.99261
177.50 1.99246
178.00 1.99186
178.50 1.99148
179.00 1.99126
179.50 1.99119
180.00 1.99127
180.00 1.99127
180.50 1.99119
181.00 1.99126
181.50 1.99148
182.00 1.99186
182.50 1.99246
183.00 1.99261
183.50 1.99361
184.00 1.99475
184.50 1.99603
185.00 1.99745
185.50 1.99901
186.00 2.00078
186.50 2.00269
187.00 2.00473
187.50 2.00534
188.00 2.00593
188.50 2.00694
189.00 2.00846
189.50 2.01011
190.00 2.01188
190.50 2.01118
191.00 2.00973
191.50 2.00881
192.00 2.00823
192.50 2.00777
193.00 2.00741
193.50 2.00695
194.00 2.00527
194.50 2.00272
195.00 1.99771
195.50 1.99330
196.00 1.99045
196.50 1.98767
197.00 1.98498
197.50 1.98137
198.00 1.97476
198.50 1.96822
199.00 1.96198
199.50 1.95774
200.00 1.95355
200.50 1.94783
201.00 1.93971
201.50 1.93164
202.00 1.92253
202.50 1.91213
203.00 1.90176
203.50 1.89142
204.00 1.87839
204.50 1.86478
205.00 1.85120
205.50 1.83752
206.00 1.82131
206.50 1.80563
207.00 1.79015
207.50 1.77470
208.00 1.75831
208.50 1.74071
209.00 1.72301
209.50 1.70450
210.00 1.68602
210.50 1.66756
211.00 1.64715
211.50 1.62570
212.00 1.60652
212.50 1.58735
213.00 1.56818
213.50 1.54768
214.00 1.52544
214.50 1.50321
215.00 1.48021
215.50 1.45639
216.00 1.43257
216.50 1.40877
217.00 1.38458
217.50 1.35949
218.00 1.33500
218.50 1.31052
219.00 1.28604
219.50 1.26130
220.00 1.23620
220.50 1.21216
221.00 1.18813
221.50 1.16407
222.00 1.13936
222.50 1.11569
223.00 1.09274
223.50 1.06981
224.00 1.04695
224.50 1.02408
225.00 1.00099
225.50 0.97863
226.00 0.95683
226.50 0.93501
227.00 0.91389
227.50 0.89336
228.00 0.87163
228.50 0.84898
229.00 0.82847
229.50 0.80825
230.00 0.78763
230.50 0.76568
231.00 0.74584
231.50 0.72594
232.00 0.70598
232.50 0.68583
233.00 0.66240
233.50 0.64068
234.00 0.61968
234.50 0.59860
235.00 0.57745
235.50 0.55597
236.00 0.53230
236.50 0.51072
237.00 0.48906
237.50 0.46730
238.00 0.44551
238.50 0.42455
239.00 0.40350
239.50 0.38003
240.00 0.35647
240.50 0.33285
241.00 0.30915
241.50 0.28591
242.00 0.26859
242.50 0.25146
243.00 0.23427
243.50 0.21702
244.00 0.19972
244.50 0.18150
245.00 0.16956
245.50 0.15784
246.00 0.14611
246.50 0.13432
247.00 0.12241
247.50 0.11048
248.00 0.10100
248.50 0.09442
249.00 0.08783
249.50 0.08124
250.00 0.07453
250.50 0.06781
251.00 0.06109
251.50 0.05476
252.00 0.05085
252.50 0.04720
253.00 0.04355
253.50 0.03991
254.00 0.03627
254.50 0.03263
255.00 0.03002
255.50 0.02801
256.00 0.02599
256.50 0.02399
257.00 0.02198
257.50 0.01989
258.00 0.01781
258.50 0.01646
259.00 0.01538
259.50 0.01431
260.00 0.01324
260.50 0.01216
261.00 0.01109
261.50 0.01004
262.00 0.00929
262.50 0.00867
263.00 0.00809
263.50 0.00751
264.00 0.00693
264.50 0.00641
265.00 0.00610
265.50 0.00579
266.00 0.00549
266.50 0.00517
267.00 0.00484
267.50 0.00473
268.00 0.00461
268.50 0.00448
269.00 0.00435
269.50 0.00422
270.00 0.00409
270.00 0.00409
270.50 0.00422
271.00 0.00435
271.50 0.00448
272.00 0.00461
272.50 0.00473
273.00 0.00484
273.50 0.00517
274.00 0.00549
274.50 0.00579
275.00 0.00610
275.50 0.00641
276.00 0.00693
276.50 0.00751
277.00 0.00809
277.50 0.00867
278.00 0.00929
278.50 0.01004
279.00 0.01109
279.50 0.01216
280.00 0.01324
280.50 0.01431
281.00 0.01538
281.50 0.01646
282.00 0.01781
282.50 0.01989
283.00 0.02198
283.50 0.02399
284.00 0.02599
284.50 0.02801
285.00 0.03002
285.50 0.03263
286.00 0.03627
286.50 0.03991
287.00 0.04355
287.50 0.04720
288.00 0.05085
288.50 0.05476
289.00 0.06109
289.50 0.06781
290.00 0.07453
290.50 0.08124
291.00 0.08783
291.50 0.09442
292.00 0.10100
292.50 0.11048
293.00 0.12241
293.50 0.13432
294.00 0.14611
294.50 0.15784
295.00 0.16956
295.50 0.18150
296.00 0.19972
296.50 0.21702
297.00 0.23427
297.50 0.25146
298.00 0.26859
298.50 0.28591
299.00 0.30915
299.50 0.33285
300.00 0.35647
300.50 0.38003
301.00 0.40350
301.50 0.42455
302.00 0.44551
302.50 0.46730
303.00 0.48906
303.50 0.51072
304.00 0.53230
304.50 0.55597
305.00 0.57745
305.50 0.59860
306.00 0.61968
306.50 0.64068
307.00 0.66240
307.50 0.68583
308.00 0.70598
308.50 0.72594
309.00 0.74584
309.50 0.76568
310.00 0.78763
310.50 0.80825
311.00 0.82847
311.50 0.84898
312.00 0.87163
312.50 0.89336
313.00 0.91389
313.50 0.93501
314.00 0.95683
314.50 0.97863
315.00 1.00099
315.50 1.02408
316.00 1.04695
316.50 1.06981
317.00 1.09274
317.50 1.11569
318.00 1.13936
318.50 1.16407
319.00 1.18813
319.50 1.21216
320.00 1.23620
320.50 1.26130
321.00 1.28604
321.50 1.31052
322.00 1.33500
322.50 1.35949
323.00 1.38458
323.50 1.40877
324.00 1.43257
324.50 1.45639
325.00 1.48021
325.50 1.50321
326.00 1.52544
326.50 1.54768
327.00 1.56818
327.50 1.58735
328.00 1.60652
328.50 1.62570
329.00 1.64715
329.50 1.66756
330.00 1.68602
330.50 1.70450
331.00 1.72301
331.50 1.74071
332.00 1.75831
332.50 1.77470
333.00 1.79015
333.50 1.80563
334.00 1.82131
334.50 1.83752
335.00 1.85120
335.50 1.86478
336.00 1.87839
336.50 1.89142
337.00 1.90176
337.50 1.91213
338.00 1.92253
338.50 1.93164
339.00 1.93971
339.50 1.94783
340.00 1.95355
340.50 1.95774
341.00 1.96198
341.50 1.96822
342.00 1.97476
342.50 1.98137
343.00 1.98498
343.50 1.98767
344.00 1.99045
344.50 1.99330
345.00 1.99771
345.50 2.00272
346.00 2.00527
346.50 2.00695
347.00 2.00741
347.50 2.00777
348.00 2.00823
348.50 2.00881
349.00 2.00973
349.50 2.01118
350.00 2.01188
350.50 2.01011
351.00 2.00846
351.50 2.00694
352.00 2.00593
352.50 2.00534
353.00 2.00473
353.50 2.00269
354.00 2.00078
354.50 1.99901
355.00 1.99745
355.50 1.99603
356.00 1.99475
356.50 1.99361
357.00 1.99261
357.50 1.99246
358.00 1.99186
358.50 1.99148
359.00 1.99126
359.50 1.99119
360.00 1.99127
