phi[deg] B[T]
0.00 2.19190
0.50 2.19002
1.00 2.18828
1.50 2.18537
2.00 2.18241
2.50 2.17986
3.00 2.17724
3.50 2.17379
4.00 2.17133
4.50 2.17000
5.00 2.16885
5.50 2.16800
6.00 2.16822
6.50 2.16904
7.00 2.17050
7.50 2.17224
8.00 2.17420
8.50 2.17783
9.00 2.18134
9.50 2.18415
10.00 2.18747
10.50 2.19242
11.00 2.19540
11.50 2.19726
12.00 2.19840
12.50 2.19617
13.00 2.19408
13.50 2.19257
14.00 2.18946
14.50 2.18648
15.00 2.18368
15.50 2.18104
16.00 2.17922
16.50 2.17760
17.00 2.17620
17.50 2.17593
18.00 2.17584
18.50 2.17601
19.00 2.17691
19.50 2.17795
20.00 2.17904
20.50 2.18017
21.00 2.18091
21.50 2.18234
22.00 2.18101
22.50 2.17914
23.00 2.17346
23.50 2.16825
24.00 2.15557
24.50 2.14535
25.00 2.12907
25.50 2.11021
26.00 2.09164
26.50 2.07363
27.00 2.05325
27.50 2.03458
28.00 2.01652
28.50 1.99861
29.00 1.98146
29.50 1.96482
30.00 1.94832
30.50 1.93195
31.00 1.91651
31.50 1.90000
32.00 1.88359
32.50 1.86727
33.00 1.85010
33.50 1.82942
34.00 1.80874
34.50 1.78808
35.00 1.76338
35.50 1.73431
36.00 1.70522
36.50 1.67320
37.00 1.63231
37.50 1.59650
38.00 1.56077
38.50 1.52356
39.00 1.48770
39.50 1.45339
40.00 1.42084
40.50 1.38926
41.00 1.35811
41.50 1.32705
42.00 1.29954
42.50 1.27130
43.00 1.24250
43.50 1.21489
44.00 1.18760
44.50 1.16028
45.00 1.13241
45.50 1.10402
46.00 1.07533
46.50 1.04478
47.00 1.01392
47.50 0.98052
48.00 0.94566
48.50 0.91064
49.00 0.87393
49.50 0.83811
50.00 0.80236
50.50 0.76891
51.00 0.73532
51.50 0.70156
52.00 0.67032
52.50 0.64094
53.00 0.60872
53.50 0.57801
54.00 0.55048
54.50 0.52079
55.00 0.49055
55.50 0.46211
56.00 0.43311
56.50 0.40154
57.00 0.37428
57.50 0.34405
58.00 0.31054
58.50 0.27867
59.00 0.24973
59.50 0.21843
60.00 0.18246
60.50 0.14628
61.00 0.12288
61.50 0.10123
62.00 0.07954
62.50 0.06382
63.00 0.05096
63.50 0.03820
64.00 0.03097
64.50 0.02414
65.00 0.01880
65.50 0.01539
66.00 0.01199
66.50 0.00923
67.00 0.00783
67.50 0.00644
68.00 0.00504
68.50 0.00372
69.00 0.00331
69.50 0.00290
70.00 0.00249
70.50 0.00208
71.00 0.00189
71.50 0.00176
72.00 0.00163
72.50 0.00152
73.00 0.00144
73.50 0.00140
74.00 0.00135
74.50 0.00129
75.00 0.00124
75.50 0.00120
76.00 0.00116
76.50 0.00111
77.00 0.00107
77.50 0.00103
78.00 0.00099
78.50 0.00095
79.00 0.00091
79.50 0.00087
80.00 0.00083
80.50 0.00078
81.00 0.00074
81.50 0.00070
82.00 0.00066
82.50 0.00062
83.00 0.00058
83.50 0.00054
84.00 0.00050
84.50 0.00046
85.00 0.00042
85.50 0.00038
86.00 0.00034
86.50 0.00030
87.00 0.00025
87.50 0.00021
88.00 0.00017
88.50 0.00013
89.00 0.00008
89.50 0.00007
90.00 0.00005
90.00 0.00005
90.50 0.00007
91.00 0.00008
91.50 0.00013
92.00 0.00017
92.50 0.00021
93.00 0.00025
93.50 0.00030
94.00 0.00034
94.50 0.00038
95.00 0.00042
95.50 0.00046
96.00 0.00050
96.50 0.00054
97.00 0.00058
97.50 0.00062
98.00 0.00066
98.50 0.00070
99.00 0.00074
99.50 0.00078
100.00 0.00083
100.50 0.00087
101.00 0.00091
101.50 0.00095
102.00 0.00099
102.50 0.00103
103.00 0.00107
103.50 0.00111
104.00 0.00116
104.50 0.00120
105.00 0.00124
105.50 0.00129
106.00 0.00135
106.50 0.00140
107.00 0.00144
107.50 0.00152
108.00 0.00163
108.50 0.00176
109.00 0.00189
109.50 0.00208
110.00 0.00249
110.50 0.00290
111.00 0.00331
111.50 0.00372
112.00 0.00504
112.50 0.00644
113.00 0.00783
113.50 0.00923
114.00 0.01199
114.50 0.01539
115.00 0.01880
115.50 0.02414
116.00 0.03097
116.50 0.03820
117.00 0.05096
117.50 0.06382
118.00 0.07954
118.50 0.10123
119.00 0.12288
119.50 0.14628
120.00 0.18246
120.50 0.21843
121.00 0.24973
121.50 0.27867
122.00 0.31054
122.50 0.34405
123.00 0.37428
123.50 0.40154
124.00 0.43311
124.50 0.46211
125.00 0.49055
125.50 0.52079
126.00 0.55048
126.50 0.57801
127.00 0.60872
127.50 0.64094
128.00 0.67032
128.50 0.70156
129.00 0.73532
129.50 0.76891
130.00 0.80236
130.50 0.83811
131.00 0.87393
131.50 0.91064
132.00 0.94566
132.50 0.98052
133.00 1.01392
133.50 1.04478
134.00 1.07533
134.50 1.10402
135.00 1.13241
135.50 1.16028
136.00 1.18760
136.50 1.21489
137.00 1.24250
137.50 1.27130
138.00 1.29954
138.50 1.32705
139.00 1.35811
139.50 1.38926
140.00 1.42084
140.50 1.45339
141.00 1.48770
141.50 1.52356
142.00 1.56077
142.50 1.59650
143.00 1.63231
143.50 1.67320
144.00 1.70522
144.50 1.73431
145.00 1.76338
145.50 1.78808
146.00 1.80874
146.50 1.82942
147.00 1.85010
147.50 1.86727
148.00 1.88359
148.50 1.90000
149.00 1.91651
149.50 1.93195
150.00 1.94832
150.50 1.96482
151.00 1.98146
151.50 1.99861
152.00 2.01652
152.50 2.03458
153.00 2.05325
153.50 2.07363
154.00 2.09164
154.50 2.11021
155.00 2.12907
155.50 2.14535
156.00 2.15557
156.50 2.16825
157.00 2.17346
157.50 2.17914
158.00 2.18101
158.50 2.18234
159.00 2.18091
159.50 2.18017
160.00 2.17904
160.50 2.17795
161.00 2.17691
161.50 2.17601
162.00 2.17584
162.50 2.17593
163.00 2.17620
163.50 2.17760
164.00 2.17922
164.50 2.18104
165.00 2.18368
165.50 2.18648
166.00 2.18946
166.50 2.19257
167.00 2.19408
167.50 2.19617
168.00 2.19840
168.50 2.19726
169.00 2.19540
169.50 2.19242
170.00 2.18747
170.50 2.18415
171.00 2.18134
171.50 2.17783
172.00 2.17420
172.50 2.17224
173.00 2.17050
173.50 2.16904
174.00 2.16822
174.50 2.16800
175.00 2.16885
175.50 2.17000
176.00 2.17133
176.50 2.17379
177.00 2.17724
177.50 2.17986
178.00 2.18241
178.50 2.18537
179.00 2.18828
179.50 2.19002
180.00 2.19190
180.00 2.19190
180.50 2.19002
181.00 2.18828
181.50 2.18537
182.00 2.18241
182.50 2.17986
183.00 2.17724
183.50 2.17379
184.00 2.17133
184.50 2.17000
185.00 2.16885
185.50 2.16800
186.00 2.16822
186.50 2.16904
187.00 2.17050
187.50 2.17224
188.00 2.17420
188.50 2.17783
189.00 2.18134
189.50 2.18415
190.00 2.18747
190.50 2.19242
191.00 2.19540
191.50 2.19726
192.00 2.19840
192.50 2.19617
193.00 2.19408
193.50 2.19257
194.00 2.18946
194.50 2.18648
195.00 2.18368
195.50 2.18104
196.00 2.17922
196.50 2.17760
197.00 2.17620
197.50 2.17593
198.00 2.17584
198.50 2.17601
199.00 2.17691
199.50 2.17795
200.00 2.17904
200.50 2.18017
201.00 2.18091
201.50 2.18234
202.00 2.18101
202.50 2.17914
203.00 2.17346
203.50 2.16825
204.00 2.15557
204.50 2.14535
205.00 2.12907
205.50 2.11021
206.00 2.09164
206.50 2.07363
207.00 2.05325
207.50 2.03458
208.00 2.01652
208.50 1.99861
209.00 1.98146
209.50 1.96482
210.00 1.94832
210.50 1.93195
211.00 1.91651
211.50 1.90000
212.00 1.88359
212.50 1.86727
213.00 1.85010
213.50 1.82942
214.00 1.80874
214.50 1.78808
215.00 1.76338
215.50 1.73431
216.00 1.70522
216.50 1.67320
217.00 1.63231
217.50 1.59650
218.00 1.56077
218.50 1.52356
219.00 1.48770
219.50 1.45339
220.00 1.42084
220.50 1.38926
221.00 1.35811
221.50 1.32705
222.00 1.29954
222.50 1.27130
223.00 1.24250
223.50 1.21489
224.00 1.18760
224.50 1.16028
225.00 1.13241
225.50 1.10402
226.00 1.07533
226.50 1.04478
227.00 1.01392
227.50 0.98052
228.00 0.94566
228.50 0.91064
229.00 0.87393
229.50 0.83811
230.00 0.80236
230.50 0.76891
231.00 0.73532
231.50 0.70156
232.00 0.67032
232.50 0.64094
233.00 0.60872
233.50 0.57801
234.00 0.55048
234.50 0.52079
235.00 0.49055
235.50 0.46211
236.00 0.43311
236.50 0.40154
237.00 0.37428
237.50 0.34405
238.00 0.31054
238.50 0.27867
239.00 0.24973
239.50 0.21843
240.00 0.18246
240.50 0.14628
241.00 0.12288
241.50 0.10123
242.00 0.07954
242.50 0.06382
243.00 0.05096
243.50 0.03820
244.00 0.03097
244.50 0.02414
245.00 0.01880
245.50 0.01539
246.00 0.01199
246.50 0.00923
247.00 0.00783
247.50 0.00644
248.00 0.00504
248.50 0.00372
249.00 0.00331
249.50 0.00290
250.00 0.00249
250.50 0.00208
251.00 0.00189
251.50 0.00176
252.00 0.00163
252.50 0.00152
253.00 0.00144
253.50 0.00140
254.00 0.00135
254.50 0.00129
255.00 0.00124
255.50 0.00120
256.00 0.00116
256.50 0.00111
257.00 0.00107
257.50 0.00103
258.00 0.00099
258.50 0.00095
259.00 0.00091
259.50 0.00087
260.00 0.00083
260.50 0.00078
261.00 0.00074
261.50 0.00070
262.00 0.00066
262.50 0.00062
263.00 0.00058
263.50 0.00054
264.00 0.00050
264.50 0.00046
265.00 0.00042
265.50 0.00038
266.00 0.00034
266.50 0.00030
267.00 0.00025
267.50 0.00021
268.00 0.00017
268.50 0.00013
269.00 0.00008
269.50 0.00007
270.00 0.00005
270.00 0.00005
270.50 0.00007
271.00 0.00008
271.50 0.00013
272.00 0.00017
272.50 0.00021
273.00 0.00025
273.50 0.00030
274.00 0.00034
274.50 0.00038
275.00 0.00042
275.50 0.00046
276.00 0.00050
276.50 0.00054
277.00 0.00058
277.50 0.00062
278.00 0.00066
278.50 0.00070
279.00 0.00074
279.50 0.00078
280.00 0.00083
280.50 0.00087
281.00 0.00091
281.50 0.00095
282.00 0.00099
282.50 0.00103
283.00 0.00107
283.50 0.00111
284.00 0.00116
284.50 0.00120
285.00 0.00124
285.50 0.00129
286.00 0.00135
286.50 0.00140
287.00 0.00144
287.50 0.00152
288.00 0.00163
288.50 0.00176
289.00 0.00189
289.50 0.00208
290.00 0.00249
290.50 0.00290
291.00 0.00331
291.50 0.00372
292.00 0.00504
292.50 0.00644
293.00 0.00783
293.50 0.00923
294.00 0.01199
294.50 0.01539
295.00 0.01880
295.50 0.02414
296.00 0.03097
296.50 0.03820
297.00 0.05096
297.50 0.06382
298.00 0.07954
298.50 0.10123
299.00 0.12288
299.50 0.14628
300.00 0.18246
300.50 0.21843
301.00 0.24973
301.50 0.27867
302.00 0.31054
302.50 0.34405
303.00 0.37428
303.50 0.40154
304.00 0.43311
304.50 0.46211
305.00 0.49055
305.50 0.52079
306.00 0.55048
306.50 0.57801
307.00 0.60872
307.50 0.64094
308.00 0.67032
308.50 0.70156
309.00 0.73532
309.50 0.76891
310.00 0.80236
310.50 0.83811
311.00 0.87393
311.50 0.91064
312.00 0.94566
312.50 0.98052
313.00 1.01392
313.50 1.04478
314.00 1.07533
314.50 1.10402
315.00 1.13241
315.50 1.16028
316.00 1.18760
316.50 1.21489
317.00 1.24250
317.50 1.27130
318.00 1.29954
318.50 1.32705
319.00 1.35811
319.50 1.38926
320.00 1.42084
320.50 1.45339
321.00 1.48770
321.50 1.52356
322.00 1.56077
322.50 1.59650
323.00 1.63231
323.50 1.67320
324.00 1.70522
324.50 1.73431
325.00 1.76338
325.50 1.78808
326.00 1.80874
326.50 1.82942
327.00 1.85010
327.50 1.86727
328.00 1.88359
328.50 1.90000
329.00 1.91651
329.50 1.93195
330.00 1.94832
330.50 1.96482
331.00 1.98146
331.50 1.99861
332.00 2.01652
332.50 2.03458
333.00 2.05325
333.50 2.07363
334.00 2.09164
334.50 2.11021
335.00 2.12907
335.50 2.14535
336.00 2.15557
336.50 2.16825
337.00 2.17346
337.50 2.17914
338.00 2.18101
338.50 2.18234
339.00 2.18091
339.50 2.18017
340.00 2.17904
340.50 2.17795
341.00 2.17691
341.50 2.17601
342.00 2.17584
342.50 2.17593
343.00 2.17620
343.50 2.17760
344.00 2.17922
344.50 2.18104
345.00 2.18368
345.50 2.18648
346.00 2.18946
346.50 2.19257
347.00 2.19408
347.50 2.19617
348.00 2.19840
348.50 2.19726
349.00 2.19540
349.50 2.19242
350.00 2.18747
350.50 2.18415
351.00 2.18134
351.50 2.17783
352.00 2.17420
352.50 2.17224
353.00 2.17050
353.50 2.16904
354.00 2.16822
354.50 2.16800
355.00 2.16885
355.50 2.17000
356.00 2.17133
356.50 2.17379
357.00 2.17724
357.50 2.17986
358.00 2.18241
358.50 2.18537
359.00 2.18828
359.50 2.19002
360.00 2.19190
