phi[deg] B[T]
0.00 1.72924
0.50 1.72854
1.00 1.72796
1.50 1.72752
2.00 1.72715
2.50 1.72668
3.00 1.72636
3.50 1.72617
4.00 1.72613
4.50 1.72634
5.00 1.72669
5.50 1.72744
6.00 1.72850
6.50 1.72970
7.00 1.73066
7.50 1.73163
8.00 1.73274
8.50 1.73398
9.00 1.73660
9.50 1.73951
10.00 1.74149
10.50 1.74258
11.00 1.74302
11.50 1.74355
12.00 1.74418
12.50 1.74316
13.00 1.74150
13.50 1.73986
14.00 1.73771
14.50 1.73565
15.00 1.73370
15.50 1.73124
16.00 1.72877
16.50 1.72621
17.00 1.72262
17.50 1.71913
18.00 1.71574
18.50 1.71295
19.00 1.71165
19.50 1.71003
20.00 1.70815
20.50 1.70252
21.00 1.69693
21.50 1.69139
22.00 1.68575
22.50 1.67866
23.00 1.67162
23.50 1.66171
24.00 1.64921
24.50 1.63674
25.00 1.62428
25.50 1.60690
26.00 1.58947
26.50 1.57202
27.00 1.55445
27.50 1.53692
28.00 1.51945
28.50 1.50157
29.00 1.48322
29.50 1.46617
30.00 1.44881
30.50 1.43062
31.00 1.41249
31.50 1.39442
32.00 1.37667
32.50 1.36082
33.00 1.34503
33.50 1.32618
34.00 1.30613
34.50 1.28611
35.00 1.26613
35.50 1.24697
36.00 1.22930
36.50 1.20851
37.00 1.18626
37.50 1.16452
38.00 1.14281
38.50 1.12113
39.00 1.09925
39.50 1.07736
40.00 1.05545
40.50 1.03358
41.00 1.01160
41.50 0.99019
42.00 0.96901
42.50 0.94782
43.00 0.92675
43.50 0.90626
44.00 0.88583
44.50 0.86548
45.00 0.84520
45.50 0.82580
46.00 0.80640
46.50 0.78780
47.00 0.76973
47.50 0.75170
48.00 0.73492
48.50 0.71809
49.00 0.70237
49.50 0.68642
50.00 0.67045
50.50 0.65867
51.00 0.64760
51.50 0.63126
52.00 0.61292
52.50 0.59453
53.00 0.57627
53.50 0.56477
54.00 0.55316
54.50 0.53786
55.00 0.52078
55.50 0.50328
56.00 0.48082
56.50 0.45821
57.00 0.43543
57.50 0.40951
58.00 0.38334
58.50 0.35704
59.00 0.33139
59.50 0.30632
60.00 0.28032
60.50 0.25395
61.00 0.22745
61.50 0.20085
62.00 0.17820
62.50 0.16053
63.00 0.14244
63.50 0.12433
64.00 0.10620
64.50 0.09283
65.00 0.08265
65.50 0.07245
66.00 0.06237
66.50 0.05267
67.00 0.04701
67.50 0.04160
68.00 0.03619
68.50 0.03077
69.00 0.02640
69.50 0.02340
70.00 0.02040
70.50 0.01761
71.00 0.01494
71.50 0.01307
72.00 0.01165
72.50 0.01026
73.00 0.00890
73.50 0.00754
74.00 0.00643
74.50 0.00573
75.00 0.00503
75.50 0.00434
76.00 0.00380
76.50 0.00327
77.00 0.00284
77.50 0.00253
78.00 0.00223
78.50 0.00192
79.00 0.00167
79.50 0.00144
80.00 0.00129
80.50 0.00115
81.00 0.00102
81.50 0.00089
82.00 0.00077
82.50 0.00069
83.00 0.00062
83.50 0.00055
84.00 0.00049
84.50 0.00042
85.00 0.00037
85.50 0.00033
86.00 0.00029
86.50 0.00025
87.00 0.00022
87.50 0.00019
88.00 0.00016
88.50 0.00014
89.00 0.00012
89.50 0.00011
90.00 0.00010
90.00 0.00010
90.50 0.00011
91.00 0.00012
91.50 0.00014
92.00 0.00016
92.50 0.00019
93.00 0.00022
93.50 0.00025
94.00 0.00029
94.50 0.00033
95.00 0.00037
95.50 0.00042
96.00 0.00049
96.50 0.00055
97.00 0.00062
97.50 0.00069
98.00 0.00077
98.50 0.00089
99.00 0.00102
99.50 0.00115
100.00 0.00129
100.50 0.00144
101.00 0.00167
101.50 0.00192
102.00 0.00223
102.50 0.00253
103.00 0.00284
103.50 0.00327
104.00 0.00380
104.50 0.00434
105.00 0.00503
105.50 0.00573
106.00 0.00643
106.50 0.00754
107.00 0.00890
107.50 0.01026
108.00 0.01165
108.50 0.01307
109.00 0.01494
109.50 0.01761
110.00 0.02040
110.50 0.02340
111.00 0.02640
111.50 0.03077
112.00 0.03619
112.50 0.04160
113.00 0.04701
113.50 0.05267
114.00 0.06237
114.50 0.07245
115.00 0.08265
115.50 0.09283
116.00 0.10620
116.50 0.12433
117.00 0.14244
117.50 0.16053
118.00 0.17820
118.50 0.20085
119.00 0.22745
119.50 0.25395
120.00 0.28032
120.50 0.30632
121.00 0.33139
121.50 0.35704
122.00 0.38334
122.50 0.40951
123.00 0.43543
123.50 0.45821
124.00 0.48082
124.50 0.50328
125.00 0.52078
125.50 0.53786
126.00 0.55316
126.50 0.56477
127.00 0.57627
127.50 0.59453
128.00 0.61292
128.50 0.63126
129.00 0.64760
129.50 0.65867
130.00 0.67045
130.50 0.68642
131.00 0.70237
131.50 0.71809
132.00 0.73492
132.50 0.75170
133.00 0.76973
133.50 0.78780
134.00 0.80640
134.50 0.82580
135.00 0.84520
135.50 0.86548
136.00 0.88583
136.50 0.90626
137.00 0.92675
137.50 0.94782
138.00 0.96901
138.50 0.99019
139.00 1.01160
139.50 1.03358
140.00 1.05545
140.50 1.07736
141.00 1.09925
141.50 1.12113
142.00 1.14281
142.50 1.16452
143.00 1.18626
143.50 1.20851
144.00 1.22930
144.50 1.24697
145.00 1.26613
145.50 1.28611
146.00 1.30613
146.50 1.32618
147.00 1.34503
147.50 1.36082
148.00 1.37667
148.50 1.39442
149.00 1.41249
149.50 1.43062
150.00 1.44881
150.50 1.46617
151.00 1.48322
151.50 1.50157
152.00 1.51945
152.50 1.53692
153.00 1.55445
153.50 1.57202
154.00 1.58947
154.50 1.60690
155.00 1.62428
155.50 1.63674
156.00 1.64921
156.50 1.66171
157.00 1.67162
157.50 1.67866
158.00 1.68575
158.50 1.69139
159.00 1.69693
159.50 1.70252
160.00 1.70815
160.50 1.71003
161.00 1.71165
161.50 1.71295
162.00 1.71574
162.50 1.71913
163.00 1.72262
163.50 1.72621
164.00 1.72877
164.50 1.73124
165.00 1.73370
165.50 1.73565
166.00 1.73771
166.50 1.73986
167.00 1.74150
167.50 1.74316
168.00 1.74418
168.50 1.74355
169.00 1.74302
169.50 1.74258
170.00 1.74149
170.50 1.73951
171.00 1.73660
171.50 1.73398
172.00 1.73274
172.50 1.73163
173.00 1.73066
173.50 1.72970
174.00 1.72850
174.50 1.72744
175.00 1.72669
175.50 1.72634
176.00 1.72613
176.50 1.72617
177.00 1.72636
177.50 1.72668
178.00 1.72715
178.50 1.72752
179.00 1.72796
179.50 1.72854
180.00 1.72924
180.00 1.72924
180.50 1.72854
181.00 1.72796
181.50 1.72752
182.00 1.72715
182.50 1.72668
183.00 1.72636
183.50 1.72617
184.00 1.72613
184.50 1.72634
185.00 1.72669
185.50 1.72744
186.00 1.72850
186.50 1.72970
187.00 1.73066
187.50 1.73163
188.00 1.73274
188.50 1.73398
189.00 1.73660
189.50 1.73951
190.00 1.74149
190.50 1.74258
191.00 1.74302
191.50 1.74355
192.00 1.74418
192.50 1.74316
193.00 1.74150
193.50 1.73986
194.00 1.73771
194.50 1.73565
195.00 1.73370
195.50 1.73124
196.00 1.72877
196.50 1.72621
197.00 1.72262
197.50 1.71913
198.00 1.71574
198.50 1.71295
199.00 1.71165
199.50 1.71003
200.00 1.70815
200.50 1.70252
201.00 1.69693
201.50 1.69139
202.00 1.68575
202.50 1.67866
203.00 1.67162
203.50 1.66171
204.00 1.64921
204.50 1.63674
205.00 1.62428
205.50 1.60690
206.00 1.58947
206.50 1.57202
207.00 1.55445
207.50 1.53692
208.00 1.51945
208.50 1.50157
209.00 1.48322
209.50 1.46617
210.00 1.44881
210.50 1.43062
211.00 1.41249
211.50 1.39442
212.00 1.37667
212.50 1.36082
213.00 1.34503
213.50 1.32618
214.00 1.30613
214.50 1.28611
215.00 1.26613
215.50 1.24697
216.00 1.22930
216.50 1.20851
217.00 1.18626
217.50 1.16452
218.00 1.14281
218.50 1.12113
219.00 1.09925
219.50 1.07736
220.00 1.05545
220.50 1.03358
221.00 1.01160
221.50 0.99019
222.00 0.96901
222.50 0.94782
223.00 0.92675
223.50 0.90626
224.00 0.88583
224.50 0.86548
225.00 0.84520
225.50 0.82580
226.00 0.80640
226.50 0.78780
227.00 0.76973
227.50 0.75170
228.00 0.73492
228.50 0.71809
229.00 0.70237
229.50 0.68642
230.00 0.67045
230.50 0.65867
231.00 0.64760
231.50 0.63126
232.00 0.61292
232.50 0.59453
233.00 0.57627
233.50 0.56477
234.00 0.55316
234.50 0.53786
235.00 0.52078
235.50 0.50328
236.00 0.48082
236.50 0.45821
237.00 0.43543
237.50 0.40951
238.00 0.38334
238.50 0.35704
239.00 0.33139
239.50 0.30632
240.00 0.28032
240.50 0.25395
241.00 0.22745
241.50 0.20085
242.00 0.17820
242.50 0.16053
243.00 0.14244
243.50 0.12433
244.00 0.10620
244.50 0.09283
245.00 0.08265
245.50 0.07245
246.00 0.06237
246.50 0.05267
247.00 0.04701
247.50 0.04160
248.00 0.03619
248.50 0.03077
249.00 0.02640
249.50 0.02340
250.00 0.02040
250.50 0.01761
251.00 0.01494
251.50 0.01307
252.00 0.01165
252.50 0.01026
253.00 0.00890
253.50 0.00754
254.00 0.00643
254.50 0.00573
255.00 0.00503
255.50 0.00434
256.00 0.00380
256.50 0.00327
257.00 0.00284
257.50 0.00253
258.00 0.00223
258.50 0.00192
259.00 0.00167
259.50 0.00144
260.00 0.00129
260.50 0.00115
261.00 0.00102
261.50 0.00089
262.00 0.00077
262.50 0.00069
263.00 0.00062
263.50 0.00055
264.00 0.00049
264.50 0.00042
265.00 0.00037
265.50 0.00033
266.00 0.00029
266.50 0.00025
267.00 0.00022
267.50 0.00019
268.00 0.00016
268.50 0.00014
269.00 0.00012
269.50 0.00011
270.00 0.00010
270.00 0.00010
270.50 0.00011
271.00 0.00012
271.50 0.00014
272.00 0.00016
272.50 0.00019
273.00 0.00022
273.50 0.00025
274.00 0.00029
274.50 0.00033
275.00 0.00037
275.50 0.00042
276.00 0.00049
276.50 0.00055
277.00 0.00062
277.50 0.00069
278.00 0.00077
278.50 0.00089
279.00 0.00102
279.50 0.00115
280.00 0.00129
280.50 0.00144
281.00 0.00167
281.50 0.00192
282.00 0.00223
282.50 0.00253
283.00 0.00284
283.50 0.00327
284.00 0.00380
284.50 0.00434
285.00 0.00503
285.50 0.00573
286.00 0.00643
286.50 0.00754
287.00 0.00890
287.50 0.01026
288.00 0.01165
288.50 0.01307
289.00 0.01494
289.50 0.01761
290.00 0.02040
290.50 0.02340
291.00 0.02640
291.50 0.03077
292.00 0.03619
292.50 0.04160
293.00 0.04701
293.50 0.05267
294.00 0.06237
294.50 0.07245
295.00 0.08265
295.50 0.09283
296.00 0.10620
296.50 0.12433
297.00 0.14244
297.50 0.16053
298.00 0.17820
298.50 0.20085
299.00 0.22745
299.50 0.25395
300.00 0.28032
300.50 0.30632
301.00 0.33139
301.50 0.35704
302.00 0.38334
302.50 0.40951
303.00 0.43543
303.50 0.45821
304.00 0.48082
304.50 0.50328
305.00 0.52078
305.50 0.53786
306.00 0.55316
306.50 0.56477
307.00 0.57627
307.50 0.59453
308.00 0.61292
308.50 0.63126
309.00 0.64760
309.50 0.65867
310.00 0.67045
310.50 0.68642
311.00 0.70237
311.50 0.71809
312.00 0.73492
312.50 0.75170
313.00 0.76973
313.50 0.78780
314.00 0.80640
314.50 0.82580
315.00 0.84520
315.50 0.86548
316.00 0.88583
316.50 0.90626
317.00 0.92675
317.50 0.94782
318.00 0.96901
318.50 0.99019
319.00 1.01160
319.50 1.03358
320.00 1.05545
320.50 1.07736
321.00 1.09925
321.50 1.12113
322.00 1.14281
322.50 1.16452
323.00 1.18626
323.50 1.20851
324.00 1.22930
324.50 1.24697
325.00 1.26613
325.50 1.28611
326.00 1.30613
326.50 1.32618
327.00 1.34503
327.50 1.36082
328.00 1.37667
328.50 1.39442
329.00 1.41249
329.50 1.43062
330.00 1.44881
330.50 1.46617
331.00 1.48322
331.50 1.50157
332.00 1.51945
332.50 1.53692
333.00 1.55445
333.50 1.57202
334.00 1.58947
334.50 1.60690
335.00 1.62428
335.50 1.63674
336.00 1.64921
336.50 1.66171
337.00 1.67162
337.50 1.67866
338.00 1.68575
338.50 1.69139
339.00 1.69693
339.50 1.70252
340.00 1.70815
340.50 1.71003
341.00 1.71165
341.50 1.71295
342.00 1.71574
342.50 1.71913
343.00 1.72262
343.50 1.72621
344.00 1.72877
344.50 1.73124
345.00 1.73370
345.50 1.73565
346.00 1.73771
346.50 1.73986
347.00 1.74150
347.50 1.74316
348.00 1.74418
348.50 1.74355
349.00 1.74302
349.50 1.74258
350.00 1.74149
350.50 1.73951
351.00 1.73660
351.50 1.73398
352.00 1.73274
352.50 1.73163
353.00 1.73066
353.50 1.72970
354.00 1.72850
354.50 1.72744
355.00 1.72669
355.50 1.72634
356.00 1.72613
356.50 1.72617
357.00 1.72636
357.50 1.72668
358.00 1.72715
358.50 1.72752
359.00 1.72796
359.50 1.72854
360.00 1.72924
