phi[deg] B[T]
0.00 1.69322
0.50 1.69271
1.00 1.69233
1.50 1.69208
2.00 1.69195
2.50 1.69192
3.00 1.69195
3.50 1.69211
4.00 1.69240
4.50 1.69281
5.00 1.69349
5.50 1.69437
6.00 1.69538
6.50 1.69577
7.00 1.69628
7.50 1.69691
8.00 1.69811
8.50 1.69944
9.00 1.70090
9.50 1.70116
10.00 1.70033
10.50 1.69974
11.00 1.70084
11.50 1.70201
12.00 1.70189
12.50 1.70043
13.00 1.69807
13.50 1.69519
14.00 1.69239
14.50 1.68968
15.00 1.68704
15.50 1.68449
16.00 1.68196
16.50 1.67927
17.00 1.67695
17.50 1.67224
18.00 1.66730
18.50 1.66243
19.00 1.65762
19.50 1.65287
20.00 1.64818
20.50 1.64430
21.00 1.64208
21.50 1.63567
22.00 1.62685
22.50 1.61804
23.00 1.60898
23.50 1.59995
24.00 1.59095
24.50 1.58009
25.00 1.56714
25.50 1.55424
26.00 1.54085
26.50 1.52611
27.00 1.51141
27.50 1.49714
28.00 1.48290
28.50 1.46856
29.00 1.45389
29.50 1.43920
30.00 1.42273
30.50 1.40630
31.00 1.38990
31.50 1.37355
32.00 1.35773
32.50 1.34355
33.00 1.32940
33.50 1.31161
34.00 1.29296
34.50 1.27433
35.00 1.25571
35.50 1.23733
36.00 1.21875
36.50 1.19944
37.00 1.18015
37.50 1.16059
38.00 1.14001
38.50 1.11945
39.00 1.09884
39.50 1.07749
40.00 1.05726
40.50 1.03707
41.00 1.01665
41.50 0.99605
42.00 0.97620
42.50 0.95681
43.00 0.93680
43.50 0.91674
44.00 0.89662
44.50 0.87645
45.00 0.85622
45.50 0.83607
46.00 0.81602
46.50 0.79574
47.00 0.77476
47.50 0.75375
48.00 0.73290
48.50 0.71213
49.00 0.69119
49.50 0.67019
50.00 0.64987
50.50 0.62995
51.00 0.60870
51.50 0.58720
52.00 0.56565
52.50 0.54681
53.00 0.52790
53.50 0.50901
54.00 0.49016
54.50 0.47123
55.00 0.45197
55.50 0.43141
56.00 0.41077
56.50 0.39003
57.00 0.36914
57.50 0.34814
58.00 0.32705
58.50 0.30588
59.00 0.28464
59.50 0.26520
60.00 0.24653
60.50 0.22781
61.00 0.20904
61.50 0.19022
62.00 0.17573
62.50 0.16277
63.00 0.14979
63.50 0.13677
64.00 0.12307
64.50 0.10881
65.00 0.09454
65.50 0.08380
66.00 0.07658
66.50 0.06936
67.00 0.06290
67.50 0.05677
68.00 0.05065
68.50 0.04453
69.00 0.03906
69.50 0.03551
70.00 0.03195
70.50 0.02839
71.00 0.02537
71.50 0.02296
72.00 0.02056
72.50 0.01816
73.00 0.01630
73.50 0.01472
74.00 0.01313
74.50 0.01155
75.00 0.01049
75.50 0.00956
76.00 0.00862
76.50 0.00769
77.00 0.00679
77.50 0.00602
78.00 0.00525
78.50 0.00480
79.00 0.00440
79.50 0.00401
80.00 0.00363
80.50 0.00326
81.00 0.00288
81.50 0.00250
82.00 0.00226
82.50 0.00207
83.00 0.00187
83.50 0.00167
84.00 0.00152
84.50 0.00136
85.00 0.00121
85.50 0.00114
86.00 0.00106
86.50 0.00099
87.00 0.00091
87.50 0.00084
88.00 0.00080
88.50 0.00077
89.00 0.00074
89.50 0.00071
90.00 0.00068
90.00 0.00068
90.50 0.00071
91.00 0.00074
91.50 0.00077
92.00 0.00080
92.50 0.00084
93.00 0.00091
93.50 0.00099
94.00 0.00106
94.50 0.00114
95.00 0.00121
95.50 0.00136
96.00 0.00152
96.50 0.00167
97.00 0.00187
97.50 0.00207
98.00 0.00226
98.50 0.00250
99.00 0.00288
99.50 0.00326
100.00 0.00363
100.50 0.00401
101.00 0.00440
101.50 0.00480
102.00 0.00525
102.50 0.00602
103.00 0.00679
103.50 0.00769
104.00 0.00862
104.50 0.00956
105.00 0.01049
105.50 0.01155
106.00 0.01313
106.50 0.01472
107.00 0.01630
107.50 0.01816
108.00 0.02056
108.50 0.02296
109.00 0.02537
109.50 0.02839
110.00 0.03195
110.50 0.03551
111.00 0.03906
111.50 0.04453
112.00 0.05065
112.50 0.05677
113.00 0.06290
113.50 0.06936
114.00 0.07658
114.50 0.08380
115.00 0.09454
115.50 0.10881
116.00 0.12307
116.50 0.13677
117.00 0.14979
117.50 0.16277
118.00 0.17573
118.50 0.19022
119.00 0.20904
119.50 0.22781
120.00 0.24653
120.50 0.26520
121.00 0.28464
121.50 0.30588
122.00 0.32705
122.50 0.34814
123.00 0.36914
123.50 0.39003
124.00 0.41077
124.50 0.43141
125.00 0.45197
125.50 0.47123
126.00 0.49016
126.50 0.50901
127.00 0.52790
127.50 0.54681
128.00 0.56565
128.50 0.58720
129.00 0.60870
129.50 0.62995
130.00 0.64987
130.50 0.67019
131.00 0.69119
131.50 0.71213
132.00 0.73290
132.50 0.75375
133.00 0.77476
133.50 0.79574
134.00 0.81602
134.50 0.83607
135.00 0.85622
135.50 0.87645
136.00 0.89662
136.50 0.91674
137.00 0.93680
137.50 0.95681
138.00 0.97620
138.50 0.99605
139.00 1.01665
139.50 1.03707
140.00 1.05726
140.50 1.07749
141.00 1.09884
141.50 1.11945
142.00 1.14001
142.50 1.16059
143.00 1.18015
143.50 1.19944
144.00 1.21875
144.50 1.23733
145.00 1.25571
145.50 1.27433
146.00 1.29296
146.50 1.31161
147.00 1.32940
147.50 1.34355
148.00 1.35773
148.50 1.37355
149.00 1.38990
149.50 1.40630
150.00 1.42273
150.50 1.43920
151.00 1.45389
151.50 1.46856
152.00 1.48290
152.50 1.49714
153.00 1.51141
153.50 1.52611
154.00 1.54085
154.50 1.55424
155.00 1.56714
155.50 1.58009
156.00 1.59095
156.50 1.59995
157.00 1.60898
157.50 1.61804
158.00 1.62685
158.50 1.63567
159.00 1.64208
159.50 1.64430
160.00 1.64818
160.50 1.65287
161.00 1.65762
161.50 1.66243
162.00 1.66730
162.50 1.67224
163.00 1.67695
163.50 1.67927
164.00 1.68196
164.50 1.68449
165.00 1.68704
165.50 1.68968
166.00 1.69239
166.50 1.69519
167.00 1.69807
167.50 1.70043
168.00 1.70189
168.50 1.70201
169.00 1.70084
169.50 1.69974
170.00 1.70033
170.50 1.70116
171.00 1.70090
171.50 1.69944
172.00 1.69811
172.50 1.69691
173.00 1.69628
173.50 1.69577
174.00 1.69538
174.50 1.69437
175.00 1.69349
175.50 1.69281
176.00 1.69240
176.50 1.69211
177.00 1.69195
177.50 1.69192
178.00 1.69195
178.50 1.69208
179.00 1.69233
179.50 1.69271
180.00 1.69322
180.00 1.69322
180.50 1.69271
181.00 1.69233
181.50 1.69208
182.00 1.69195
182.50 1.69192
183.00 1.69195
183.50 1.69211
184.00 1.69240
184.50 1.69281
185.00 1.69349
185.50 1.69437
186.00 1.69538
186.50 1.69577
187.00 1.69628
187.50 1.69691
188.00 1.69811
188.50 1.69944
189.00 1.70090
189.50 1.70116
190.00 1.70033
190.50 1.69974
191.00 1.70084
191.50 1.70201
192.00 1.70189
192.50 1.70043
193.00 1.69807
193.50 1.69519
194.00 1.69239
194.50 1.68968
195.00 1.68704
195.50 1.68449
196.00 1.68196
196.50 1.67927
197.00 1.67695
197.50 1.67224
198.00 1.66730
198.50 1.66243
199.00 1.65762
199.50 1.65287
200.00 1.64818
200.50 1.64430
201.00 1.64208
201.50 1.63567
202.00 1.62685
202.50 1.61804
203.00 1.60898
203.50 1.59995
204.00 1.59095
204.50 1.58009
205.00 1.56714
205.50 1.55424
206.00 1.54085
206.50 1.52611
207.00 1.51141
207.50 1.49714
208.00 1.48290
208.50 1.46856
209.00 1.45389
209.50 1.43920
210.00 1.42273
210.50 1.40630
211.00 1.38990
211.50 1.37355
212.00 1.35773
212.50 1.34355
213.00 1.32940
213.50 1.31161
214.00 1.29296
214.50 1.27433
215.00 1.25571
215.50 1.23733
216.00 1.21875
216.50 1.19944
217.00 1.18015
217.50 1.16059
218.00 1.14001
218.50 1.11945
219.00 1.09884
219.50 1.07749
220.00 1.05726
220.50 1.03707
221.00 1.01665
221.50 0.99605
222.00 0.97620
222.50 0.95681
223.00 0.93680
223.50 0.91674
224.00 0.89662
224.50 0.87645
225.00 0.85622
225.50 0.83607
226.00 0.81602
226.50 0.79574
227.00 0.77476
227.50 0.75375
228.00 0.73290
228.50 0.71213
229.00 0.69119
229.50 0.67019
230.00 0.64987
230.50 0.62995
231.00 0.60870
231.50 0.58720
232.00 0.56565
232.50 0.54681
233.00 0.52790
233.50 0.50901
234.00 0.49016
234.50 0.47123
235.00 0.45197
235.50 0.43141
236.00 0.41077
236.50 0.39003
237.00 0.36914
237.50 0.34814
238.00 0.32705
238.50 0.30588
239.00 0.28464
239.50 0.26520
240.00 0.24653
240.50 0.22781
241.00 0.20904
241.50 0.19022
242.00 0.17573
242.50 0.16277
243.00 0.14979
243.50 0.13677
244.00 0.12307
244.50 0.10881
245.00 0.09454
245.50 0.08380
246.00 0.07658
246.50 0.06936
247.00 0.06290
247.50 0.05677
248.00 0.05065
248.50 0.04453
249.00 0.03906
249.50 0.03551
250.00 0.03195
250.50 0.02839
251.00 0.02537
251.50 0.02296
252.00 0.02056
252.50 0.01816
253.00 0.01630
253.50 0.01472
254.00 0.01313
254.50 0.01155
255.00 0.01049
255.50 0.00956
256.00 0.00862
256.50 0.00769
257.00 0.00679
257.50 0.00602
258.00 0.00525
258.50 0.00480
259.00 0.00440
259.50 0.00401
260.00 0.00363
260.50 0.00326
261.00 0.00288
261.50 0.00250
262.00 0.00226
262.50 0.00207
263.00 0.00187
263.50 0.00167
264.00 0.00152
264.50 0.00136
265.00 0.00121
265.50 0.00114
266.00 0.00106
266.50 0.00099
267.00 0.00091
267.50 0.00084
268.00 0.00080
268.50 0.00077
269.00 0.00074
269.50 0.00071
270.00 0.00068
270.00 0.00068
270.50 0.00071
271.00 0.00074
271.50 0.00077
272.00 0.00080
272.50 0.00084
273.00 0.00091
273.50 0.00099
274.00 0.00106
274.50 0.00114
275.00 0.00121
275.50 0.00136
276.00 0.00152
276.50 0.00167
277.00 0.00187
277.50 0.00207
278.00 0.00226
278.50 0.00250
279.00 0.00288
279.50 0.00326
280.00 0.00363
280.50 0.00401
281.00 0.00440
281.50 0.00480
282.00 0.00525
282.50 0.00602
283.00 0.00679
283.50 0.00769
284.00 0.00862
284.50 0.00956
285.00 0.01049
285.50 0.01155
286.00 0.01313
286.50 0.01472
287.00 0.01630
287.50 0.01816
288.00 0.02056
288.50 0.02296
289.00 0.02537
289.50 0.02839
290.00 0.03195
290.50 0.03551
291.00 0.03906
291.50 0.04453
292.00 0.05065
292.50 0.05677
293.00 0.06290
293.50 0.06936
294.00 0.07658
294.50 0.08380
295.00 0.09454
295.50 0.10881
296.00 0.12307
296.50 0.13677
297.00 0.14979
297.50 0.16277
298.00 0.17573
298.50 0.19022
299.00 0.20904
299.50 0.22781
300.00 0.24653
300.50 0.26520
301.00 0.28464
301.50 0.30588
302.00 0.32705
302.50 0.34814
303.00 0.36914
303.50 0.39003
304.00 0.41077
304.50 0.43141
305.00 0.45197
305.50 0.47123
306.00 0.49016
306.50 0.50901
307.00 0.52790
307.50 0.54681
308.00 0.56565
308.50 0.58720
309.00 0.60870
309.50 0.62995
310.00 0.64987
310.50 0.67019
311.00 0.69119
311.50 0.71213
312.00 0.73290
312.50 0.75375
313.00 0.77476
313.50 0.79574
314.00 0.81602
314.50 0.83607
315.00 0.85622
315.50 0.87645
316.00 0.89662
316.50 0.91674
317.00 0.93680
317.50 0.95681
318.00 0.97620
318.50 0.99605
319.00 1.01665
319.50 1.03707
320.00 1.05726
320.50 1.07749
321.00 1.09884
321.50 1.11945
322.00 1.14001
322.50 1.16059
323.00 1.18015
323.50 1.19944
324.00 1.21875
324.50 1.23733
325.00 1.25571
325.50 1.27433
326.00 1.29296
326.50 1.31161
327.00 1.32940
327.50 1.34355
328.00 1.35773
328.50 1.37355
329.00 1.38990
329.50 1.40630
330.00 1.42273
330.50 1.43920
331.00 1.45389
331.50 1.46856
332.00 1.48290
332.50 1.49714
333.00 1.51141
333.50 1.52611
334.00 1.54085
334.50 1.55424
335.00 1.56714
335.50 1.58009
336.00 1.59095
336.50 1.59995
337.00 1.60898
337.50 1.61804
338.00 1.62685
338.50 1.63567
339.00 1.64208
339.50 1.64430
340.00 1.64818
340.50 1.65287
341.00 1.65762
341.50 1.66243
342.00 1.66730
342.50 1.67224
343.00 1.67695
343.50 1.67927
344.00 1.68196
344.50 1.68449
345.00 1.68704
345.50 1.68968
346.00 1.69239
346.50 1.69519
347.00 1.69807
347.50 1.70043
348.00 1.70189
348.50 1.70201
349.00 1.70084
349.50 1.69974
350.00 1.70033
350.50 1.70116
351.00 1.70090
351.50 1.69944
352.00 1.69811
352.50 1.69691
353.00 1.69628
353.50 1.69577
354.00 1.69538
354.50 1.69437
355.00 1.69349
355.50 1.69281
356.00 1.69240
356.50 1.69211
357.00 1.69195
357.50 1.69192
358.00 1.69195
358.50 1.69208
359.00 1.69233
359.50 1.69271
360.00 1.69322
