phi[deg] B[T]
0.00 1.14441
0.50 1.14396
1.00 1.14359
1.50 1.14331
2.00 1.14312
2.50 1.14286
3.00 1.14269
3.50 1.14261
4.00 1.14262
4.50 1.14276
5.00 1.14298
5.50 1.14340
6.00 1.14414
6.50 1.14497
7.00 1.14566
7.50 1.14623
8.00 1.14690
8.50 1.14765
9.00 1.14877
9.50 1.15086
10.00 1.15239
10.50 1.15337
11.00 1.15338
11.50 1.15346
12.00 1.15359
12.50 1.15379
13.00 1.15302
13.50 1.15185
14.00 1.15052
14.50 1.14868
15.00 1.14691
15.50 1.14521
16.00 1.14357
16.50 1.14192
17.00 1.14053
17.50 1.13951
18.00 1.13728
18.50 1.13469
19.00 1.13215
19.50 1.12966
20.00 1.12765
20.50 1.12670
21.00 1.12579
21.50 1.12075
22.00 1.11476
22.50 1.10880
23.00 1.10286
23.50 1.09764
24.00 1.09429
24.50 1.08503
25.00 1.07391
25.50 1.06372
26.00 1.05356
26.50 1.04340
27.00 1.03327
27.50 1.02146
28.00 1.00838
28.50 0.99536
29.00 0.98251
29.50 0.96969
30.00 0.95691
30.50 0.94416
31.00 0.93145
31.50 0.91873
32.00 0.90629
32.50 0.89354
33.00 0.88080
33.50 0.86809
34.00 0.85543
34.50 0.84280
35.00 0.83050
35.50 0.81910
36.00 0.80770
36.50 0.79632
37.00 0.78415
37.50 0.77161
38.00 0.75911
38.50 0.74801
39.00 0.73694
39.50 0.72447
40.00 0.71183
40.50 0.69960
41.00 0.68717
41.50 0.67401
42.00 0.66064
42.50 0.64741
43.00 0.63370
43.50 0.62000
44.00 0.60575
44.50 0.59085
45.00 0.57620
45.50 0.56114
46.00 0.54629
46.50 0.53145
47.00 0.51663
47.50 0.50183
48.00 0.48797
48.50 0.47439
49.00 0.46098
49.50 0.44802
50.00 0.43508
50.50 0.42417
51.00 0.41341
51.50 0.40403
52.00 0.39541
52.50 0.38552
53.00 0.37307
53.50 0.36062
54.00 0.34825
54.50 0.33583
55.00 0.32634
55.50 0.31745
56.00 0.30606
56.50 0.29301
57.00 0.27877
57.50 0.26442
58.00 0.24996
58.50 0.23514
59.00 0.21706
59.50 0.19889
60.00 0.18422
60.50 0.16967
61.00 0.15504
61.50 0.14035
62.00 0.12398
62.50 0.10677
63.00 0.09512
63.50 0.08473
64.00 0.07590
64.50 0.06706
65.00 0.05822
65.50 0.05067
66.00 0.04527
66.50 0.03985
67.00 0.03446
67.50 0.03030
68.00 0.02615
68.50 0.02276
69.00 0.02056
69.50 0.01835
70.00 0.01614
70.50 0.01393
71.00 0.01181
71.50 0.01047
72.00 0.00943
72.50 0.00841
73.00 0.00738
73.50 0.00636
74.00 0.00534
74.50 0.00480
75.00 0.00426
75.50 0.00372
76.00 0.00324
76.50 0.00278
77.00 0.00247
77.50 0.00223
78.00 0.00199
78.50 0.00175
79.00 0.00152
79.50 0.00128
80.00 0.00115
80.50 0.00103
81.00 0.00090
81.50 0.00080
82.00 0.00071
82.50 0.00062
83.00 0.00055
83.50 0.00049
84.00 0.00043
84.50 0.00039
85.00 0.00035
85.50 0.00031
86.00 0.00027
86.50 0.00024
87.00 0.00022
87.50 0.00019
88.00 0.00017
88.50 0.00016
89.00 0.00015
89.50 0.00014
90.00 0.00013
90.00 0.00013
90.50 0.00014
91.00 0.00015
91.50 0.00016
92.00 0.00017
92.50 0.00019
93.00 0.00022
93.50 0.00024
94.00 0.00027
94.50 0.00031
95.00 0.00035
95.50 0.00039
96.00 0.00043
96.50 0.00049
97.00 0.00055
97.50 0.00062
98.00 0.00071
98.50 0.00080
99.00 0.00090
99.50 0.00103
100.00 0.00115
100.50 0.00128
101.00 0.00152
101.50 0.00175
102.00 0.00199
102.50 0.00223
103.00 0.00247
103.50 0.00278
104.00 0.00324
104.50 0.00372
105.00 0.00426
105.50 0.00480
106.00 0.00534
106.50 0.00636
107.00 0.00738
107.50 0.00841
108.00 0.00943
108.50 0.01047
109.00 0.01181
109.50 0.01393
110.00 0.01614
110.50 0.01835
111.00 0.02056
111.50 0.02276
112.00 0.02615
112.50 0.03030
113.00 0.03446
113.50 0.03985
114.00 0.04527
114.50 0.05067
115.00 0.05822
115.50 0.06706
116.00 0.07590
116.50 0.08473
117.00 0.09512
117.50 0.10677
118.00 0.12398
118.50 0.14035
119.00 0.15504
119.50 0.16967
120.00 0.18422
120.50 0.19889
121.00 0.21706
121.50 0.23514
122.00 0.24996
122.50 0.26442
123.00 0.27877
123.50 0.29301
124.00 0.30606
124.50 0.31745
125.00 0.32634
125.50 0.33583
126.00 0.34825
126.50 0.36062
127.00 0.37307
127.50 0.38552
128.00 0.39541
128.50 0.40403
129.00 0.41341
129.50 0.42417
130.00 0.43508
130.50 0.44802
131.00 0.46098
131.50 0.47439
132.00 0.48797
132.50 0.50183
133.00 0.51663
133.50 0.53145
134.00 0.54629
134.50 0.56114
135.00 0.57620
135.50 0.59085
136.00 0.60575
136.50 0.62000
137.00 0.63370
137.50 0.64741
138.00 0.66064
138.50 0.67401
139.00 0.68717
139.50 0.69960
140.00 0.71183
140.50 0.72447
141.00 0.73694
141.50 0.74801
142.00 0.75911
142.50 0.77161
143.00 0.78415
143.50 0.79632
144.00 0.80770
144.50 0.81910
145.00 0.83050
145.50 0.84280
146.00 0.85543
146.50 0.86809
147.00 0.88080
147.50 0.89354
148.00 0.90629
148.50 0.91873
149.00 0.93145
149.50 0.94416
150.00 0.95691
150.50 0.96969
151.00 0.98251
151.50 0.99536
152.00 1.00838
152.50 1.02146
153.00 1.03327
153.50 1.04340
154.00 1.05356
154.50 1.06372
155.00 1.07391
155.50 1.08503
156.00 1.09429
156.50 1.09764
157.00 1.10286
157.50 1.10880
158.00 1.11476
158.50 1.12075
159.00 1.12579
159.50 1.12670
160.00 1.12765
160.50 1.12966
161.00 1.13215
161.50 1.13469
162.00 1.13728
162.50 1.13951
163.00 1.14053
163.50 1.14192
164.00 1.14357
164.50 1.14521
165.00 1.14691
165.50 1.14868
166.00 1.15052
166.50 1.15185
167.00 1.15302
167.50 1.15379
168.00 1.15359
168.50 1.15346
169.00 1.15338
169.50 1.15337
170.00 1.15239
170.50 1.15086
171.00 1.14877
171.50 1.14765
172.00 1.14690
172.50 1.14623
173.00 1.14566
173.50 1.14497
174.00 1.14414
174.50 1.14340
175.00 1.14298
175.50 1.14276
176.00 1.14262
176.50 1.14261
177.00 1.14269
177.50 1.14286
178.00 1.14312
178.50 1.14331
179.00 1.14359
179.50 1.14396
180.00 1.14441
180.00 1.14441
180.50 1.14396
181.00 1.14359
181.50 1.14331
182.00 1.14312
182.50 1.14286
183.00 1.14269
183.50 1.14261
184.00 1.14262
184.50 1.14276
185.00 1.14298
185.50 1.14340
186.00 1.14414
186.50 1.14497
187.00 1.14566
187.50 1.14623
188.00 1.14690
188.50 1.14765
189.00 1.14877
189.50 1.15086
190.00 1.15239
190.50 1.15337
191.00 1.15338
191.50 1.15346
192.00 1.15359
192.50 1.15379
193.00 1.15302
193.50 1.15185
194.00 1.15052
194.50 1.14868
195.00 1.14691
195.50 1.14521
196.00 1.14357
196.50 1.14192
197.00 1.14053
197.50 1.13951
198.00 1.13728
198.50 1.13469
199.00 1.13215
199.50 1.12966
200.00 1.12765
200.50 1.12670
201.00 1.12579
201.50 1.12075
202.00 1.11476
202.50 1.10880
203.00 1.10286
203.50 1.09764
204.00 1.09429
204.50 1.08503
205.00 1.07391
205.50 1.06372
206.00 1.05356
206.50 1.04340
207.00 1.03327
207.50 1.02146
208.00 1.00838
208.50 0.99536
209.00 0.98251
209.50 0.96969
210.00 0.95691
210.50 0.94416
211.00 0.93145
211.50 0.91873
212.00 0.90629
212.50 0.89354
213.00 0.88080
213.50 0.86809
214.00 0.85543
214.50 0.84280
215.00 0.83050
215.50 0.81910
216.00 0.80770
216.50 0.79632
217.00 0.78415
217.50 0.77161
218.00 0.75911
218.50 0.74801
219.00 0.73694
219.50 0.72447
220.00 0.71183
220.50 0.69960
221.00 0.68717
221.50 0.67401
222.00 0.66064
222.50 0.64741
223.00 0.63370
223.50 0.62000
224.00 0.60575
224.50 0.59085
225.00 0.57620
225.50 0.56114
226.00 0.54629
226.50 0.53145
227.00 0.51663
227.50 0.50183
228.00 0.48797
228.50 0.47439
229.00 0.46098
229.50 0.44802
230.00 0.43508
230.50 0.42417
231.00 0.41341
231.50 0.40403
232.00 0.39541
232.50 0.38552
233.00 0.37307
233.50 0.36062
234.00 0.34825
234.50 0.33583
235.00 0.32634
235.50 0.31745
236.00 0.30606
236.50 0.29301
237.00 0.27877
237.50 0.26442
238.00 0.24996
238.50 0.23514
239.00 0.21706
239.50 0.19889
240.00 0.18422
240.50 0.16967
241.00 0.15504
241.50 0.14035
242.00 0.12398
242.50 0.10677
243.00 0.09512
243.50 0.08473
244.00 0.07590
244.50 0.06706
245.00 0.05822
245.50 0.05067
246.00 0.04527
246.50 0.03985
247.00 0.03446
247.50 0.03030
248.00 0.02615
248.50 0.02276
249.00 0.02056
249.50 0.01835
250.00 0.01614
250.50 0.01393
251.00 0.01181
251.50 0.01047
252.00 0.00943
252.50 0.00841
253.00 0.00738
253.50 0.00636
254.00 0.00534
254.50 0.00480
255.00 0.00426
255.50 0.00372
256.00 0.00324
256.50 0.00278
257.00 0.00247
257.50 0.00223
258.00 0.00199
258.50 0.00175
259.00 0.00152
259.50 0.00128
260.00 0.00115
260.50 0.00103
261.00 0.00090
261.50 0.00080
262.00 0.00071
262.50 0.00062
263.00 0.00055
263.50 0.00049
264.00 0.00043
264.50 0.00039
265.00 0.00035
265.50 0.00031
266.00 0.00027
266.50 0.00024
267.00 0.00022
267.50 0.00019
268.00 0.00017
268.50 0.00016
269.00 0.00015
269.50 0.00014
270.00 0.00013
270.00 0.00013
270.50 0.00014
271.00 0.00015
271.50 0.00016
272.00 0.00017
272.50 0.00019
273.00 0.00022
273.50 0.00024
274.00 0.00027
274.50 0.00031
275.00 0.00035
275.50 0.00039
276.00 0.00043
276.50 0.00049
277.00 0.00055
277.50 0.00062
278.00 0.00071
278.50 0.00080
279.00 0.00090
279.50 0.00103
280.00 0.00115
280.50 0.00128
281.00 0.00152
281.50 0.00175
282.00 0.00199
282.50 0.00223
283.00 0.00247
283.50 0.00278
284.00 0.00324
284.50 0.00372
285.00 0.00426
285.50 0.00480
286.00 0.00534
286.50 0.00636
287.00 0.00738
287.50 0.00841
288.00 0.00943
288.50 0.01047
289.00 0.01181
289.50 0.01393
290.00 0.01614
290.50 0.01835
291.00 0.02056
291.50 0.02276
292.00 0.02615
292.50 0.03030
293.00 0.03446
293.50 0.03985
294.00 0.04527
294.50 0.05067
295.00 0.05822
295.50 0.06706
296.00 0.07590
296.50 0.08473
297.00 0.09512
297.50 0.10677
298.00 0.12398
298.50 0.14035
299.00 0.15504
299.50 0.16967
300.00 0.18422
300.50 0.19889
301.00 0.21706
301.50 0.23514
302.00 0.24996
302.50 0.26442
303.00 0.27877
303.50 0.29301
304.00 0.30606
304.50 0.31745
305.00 0.32634
305.50 0.33583
306.00 0.34825
306.50 0.36062
307.00 0.37307
307.50 0.38552
308.00 0.39541
308.50 0.40403
309.00 0.41341
309.50 0.42417
310.00 0.43508
310.50 0.44802
311.00 0.46098
311.50 0.47439
312.00 0.48797
312.50 0.50183
313.00 0.51663
313.50 0.53145
314.00 0.54629
314.50 0.56114
315.00 0.57620
315.50 0.59085
316.00 0.60575
316.50 0.62000
317.00 0.63370
317.50 0.64741
318.00 0.66064
318.50 0.67401
319.00 0.68717
319.50 0.69960
320.00 0.71183
320.50 0.72447
321.00 0.73694
321.50 0.74801
322.00 0.75911
322.50 0.77161
323.00 0.78415
323.50 0.79632
324.00 0.80770
324.50 0.81910
325.00 0.83050
325.50 0.84280
326.00 0.85543
326.50 0.86809
327.00 0.88080
327.50 0.89354
328.00 0.90629
328.50 0.91873
329.00 0.93145
329.50 0.94416
330.00 0.95691
330.50 0.96969
331.00 0.98251
331.50 0.99536
332.00 1.00838
332.50 1.02146
333.00 1.03327
333.50 1.04340
334.00 1.05356
334.50 1.06372
335.00 1.07391
335.50 1.08503
336.00 1.09429
336.50 1.09764
337.00 1.10286
337.50 1.10880
338.00 1.11476
338.50 1.12075
339.00 1.12579
339.50 1.12670
340.00 1.12765
340.50 1.12966
341.00 1.13215
341.50 1.13469
342.00 1.13728
342.50 1.13951
343.00 1.14053
343.50 1.14192
344.00 1.14357
344.50 1.14521
345.00 1.14691
345.50 1.14868
346.00 1.15052
346.50 1.15185
347.00 1.15302
347.50 1.15379
348.00 1.15359
348.50 1.15346
349.00 1.15338
349.50 1.15337
350.00 1.15239
350.50 1.15086
351.00 1.14877
351.50 1.14765
352.00 1.14690
352.50 1.14623
353.00 1.14566
353.50 1.14497
354.00 1.14414
354.50 1.14340
355.00 1.14298
355.50 1.14276
356.00 1.14262
356.50 1.14261
357.00 1.14269
357.50 1.14286
358.00 1.14312
358.50 1.14331
359.00 1.14359
359.50 1.14396
360.00 1.14441
