phi[deg] B[T]
0.00 1.53281
0.50 1.53226
1.00 1.53183
1.50 1.53151
2.00 1.53131
2.50 1.53106
3.00 1.53092
3.50 1.53091
4.00 1.53102
4.50 1.53123
5.00 1.53157
5.50 1.53215
6.00 1.53320
6.50 1.53437
7.00 1.53527
7.50 1.53597
8.00 1.53679
8.50 1.53773
9.00 1.53914
9.50 1.54183
10.00 1.54366
10.50 1.54476
11.00 1.54467
11.50 1.54466
12.00 1.54474
12.50 1.54490
13.00 1.54379
13.50 1.54217
14.00 1.54034
14.50 1.53784
15.00 1.53544
15.50 1.53312
16.00 1.53089
16.50 1.52873
17.00 1.52684
17.50 1.52535
18.00 1.52227
18.50 1.51872
19.00 1.51523
19.50 1.51182
20.00 1.50891
20.50 1.50713
21.00 1.50541
21.50 1.49855
22.00 1.49053
22.50 1.48254
23.00 1.47459
23.50 1.46736
24.00 1.46212
24.50 1.45000
25.00 1.43580
25.50 1.42291
26.00 1.41006
26.50 1.39724
27.00 1.38445
27.50 1.37032
28.00 1.35511
28.50 1.33988
29.00 1.32433
29.50 1.30883
30.00 1.29339
30.50 1.27799
31.00 1.26292
31.50 1.24914
32.00 1.23573
32.50 1.21920
33.00 1.20209
33.50 1.18499
34.00 1.16790
34.50 1.15083
35.00 1.13394
35.50 1.11781
36.00 1.09846
36.50 1.07739
37.00 1.05705
37.50 1.03715
38.00 1.01726
38.50 0.99625
39.00 0.97527
39.50 0.95430
40.00 0.93355
40.50 0.91315
41.00 0.89292
41.50 0.87313
42.00 0.85351
42.50 0.83397
43.00 0.81542
43.50 0.79694
44.00 0.77888
44.50 0.76133
45.00 0.74394
45.50 0.72787
46.00 0.71164
46.50 0.69645
47.00 0.68233
47.50 0.66779
48.00 0.65497
48.50 0.64240
49.00 0.62924
49.50 0.61682
50.00 0.60517
50.50 0.59564
51.00 0.58658
51.50 0.57401
52.00 0.56140
52.50 0.54875
53.00 0.53557
53.50 0.51878
54.00 0.50383
54.50 0.48981
55.00 0.47564
55.50 0.46132
56.00 0.44529
56.50 0.42790
57.00 0.40751
57.50 0.38694
58.00 0.36622
58.50 0.34433
59.00 0.31744
59.50 0.29041
60.00 0.26816
60.50 0.24721
61.00 0.22616
61.50 0.20502
62.00 0.18110
62.50 0.15645
63.00 0.13924
63.50 0.12344
64.00 0.11095
64.50 0.09845
65.00 0.08595
65.50 0.07406
66.00 0.06610
66.50 0.05812
67.00 0.05013
67.50 0.04407
68.00 0.03816
68.50 0.03333
69.00 0.03007
69.50 0.02681
70.00 0.02355
70.50 0.02028
71.00 0.01719
71.50 0.01527
72.00 0.01374
72.50 0.01224
73.00 0.01075
73.50 0.00925
74.00 0.00778
74.50 0.00699
75.00 0.00620
75.50 0.00541
76.00 0.00472
76.50 0.00405
77.00 0.00360
77.50 0.00323
78.00 0.00288
78.50 0.00254
79.00 0.00220
79.50 0.00187
80.00 0.00168
80.50 0.00149
81.00 0.00131
81.50 0.00116
82.00 0.00103
82.50 0.00090
83.00 0.00080
83.50 0.00071
84.00 0.00062
84.50 0.00057
85.00 0.00051
85.50 0.00045
86.00 0.00040
86.50 0.00036
87.00 0.00033
87.50 0.00031
88.00 0.00028
88.50 0.00026
89.00 0.00025
89.50 0.00024
90.00 0.00023
90.00 0.00023
90.50 0.00024
91.00 0.00025
91.50 0.00026
92.00 0.00028
92.50 0.00031
93.00 0.00033
93.50 0.00036
94.00 0.00040
94.50 0.00045
95.00 0.00051
95.50 0.00057
96.00 0.00062
96.50 0.00071
97.00 0.00080
97.50 0.00090
98.00 0.00103
98.50 0.00116
99.00 0.00131
99.50 0.00149
100.00 0.00168
100.50 0.00187
101.00 0.00220
101.50 0.00254
102.00 0.00288
102.50 0.00323
103.00 0.00360
103.50 0.00405
104.00 0.00472
104.50 0.00541
105.00 0.00620
105.50 0.00699
106.00 0.00778
106.50 0.00925
107.00 0.01075
107.50 0.01224
108.00 0.01374
108.50 0.01527
109.00 0.01719
109.50 0.02028
110.00 0.02355
110.50 0.02681
111.00 0.03007
111.50 0.03333
112.00 0.03816
112.50 0.04407
113.00 0.05013
113.50 0.05812
114.00 0.06610
114.50 0.07406
115.00 0.08595
115.50 0.09845
116.00 0.11095
116.50 0.12344
117.00 0.13924
117.50 0.15645
118.00 0.18110
118.50 0.20502
119.00 0.22616
119.50 0.24721
120.00 0.26816
120.50 0.29041
121.00 0.31744
121.50 0.34433
122.00 0.36622
122.50 0.38694
123.00 0.40751
123.50 0.42790
124.00 0.44529
124.50 0.46132
125.00 0.47564
125.50 0.48981
126.00 0.50383
126.50 0.51878
127.00 0.53557
127.50 0.54875
128.00 0.56140
128.50 0.57401
129.00 0.58658
129.50 0.59564
130.00 0.60517
130.50 0.61682
131.00 0.62924
131.50 0.64240
132.00 0.65497
132.50 0.66779
133.00 0.68233
133.50 0.69645
134.00 0.71164
134.50 0.72787
135.00 0.74394
135.50 0.76133
136.00 0.77888
136.50 0.79694
137.00 0.81542
137.50 0.83397
138.00 0.85351
138.50 0.87313
139.00 0.89292
139.50 0.91315
140.00 0.93355
140.50 0.95430
141.00 0.97527
141.50 0.99625
142.00 1.01726
142.50 1.03715
143.00 1.05705
143.50 1.07739
144.00 1.09846
144.50 1.11781
145.00 1.13394
145.50 1.15083
146.00 1.16790
146.50 1.18499
147.00 1.20209
147.50 1.21920
148.00 1.23573
148.50 1.24914
149.00 1.26292
149.50 1.27799
150.00 1.29339
150.50 1.30883
151.00 1.32433
151.50 1.33988
152.00 1.35511
152.50 1.37032
153.00 1.38445
153.50 1.39724
154.00 1.41006
154.50 1.42291
155.00 1.43580
155.50 1.45000
156.00 1.46212
156.50 1.46736
157.00 1.47459
157.50 1.48254
158.00 1.49053
158.50 1.49855
159.00 1.50541
159.50 1.50713
160.00 1.50891
160.50 1.51182
161.00 1.51523
161.50 1.51872
162.00 1.52227
162.50 1.52535
163.00 1.52684
163.50 1.52873
164.00 1.53089
164.50 1.53312
165.00 1.53544
165.50 1.53784
166.00 1.54034
166.50 1.54217
167.00 1.54379
167.50 1.54490
168.00 1.54474
168.50 1.54466
169.00 1.54467
169.50 1.54476
170.00 1.54366
170.50 1.54183
171.00 1.53914
171.50 1.53773
172.00 1.53679
172.50 1.53597
173.00 1.53527
173.50 1.53437
174.00 1.53320
174.50 1.53215
175.00 1.53157
175.50 1.53123
176.00 1.53102
176.50 1.53091
177.00 1.53092
177.50 1.53106
178.00 1.53131
178.50 1.53151
179.00 1.53183
179.50 1.53226
180.00 1.53281
180.00 1.53281
180.50 1.53226
181.00 1.53183
181.50 1.53151
182.00 1.53131
182.50 1.53106
183.00 1.53092
183.50 1.53091
184.00 1.53102
184.50 1.53123
185.00 1.53157
185.50 1.53215
186.00 1.53320
186.50 1.53437
187.00 1.53527
187.50 1.53597
188.00 1.53679
188.50 1.53773
189.00 1.53914
189.50 1.54183
190.00 1.54366
190.50 1.54476
191.00 1.54467
191.50 1.54466
192.00 1.54474
192.50 1.54490
193.00 1.54379
193.50 1.54217
194.00 1.54034
194.50 1.53784
195.00 1.53544
195.50 1.53312
196.00 1.53089
196.50 1.52873
197.00 1.52684
197.50 1.52535
198.00 1.52227
198.50 1.51872
199.00 1.51523
199.50 1.51182
200.00 1.50891
200.50 1.50713
201.00 1.50541
201.50 1.49855
202.00 1.49053
202.50 1.48254
203.00 1.47459
203.50 1.46736
204.00 1.46212
204.50 1.45000
205.00 1.43580
205.50 1.42291
206.00 1.41006
206.50 1.39724
207.00 1.38445
207.50 1.37032
208.00 1.35511
208.50 1.33988
209.00 1.32433
209.50 1.30883
210.00 1.29339
210.50 1.27799
211.00 1.26292
211.50 1.24914
212.00 1.23573
212.50 1.21920
213.00 1.20209
213.50 1.18499
214.00 1.16790
214.50 1.15083
215.00 1.13394
215.50 1.11781
216.00 1.09846
216.50 1.07739
217.00 1.05705
217.50 1.03715
218.00 1.01726
218.50 0.99625
219.00 0.97527
219.50 0.95430
220.00 0.93355
220.50 0.91315
221.00 0.89292
221.50 0.87313
222.00 0.85351
222.50 0.83397
223.00 0.81542
223.50 0.79694
224.00 0.77888
224.50 0.76133
225.00 0.74394
225.50 0.72787
226.00 0.71164
226.50 0.69645
227.00 0.68233
227.50 0.66779
228.00 0.65497
228.50 0.64240
229.00 0.62924
229.50 0.61682
230.00 0.60517
230.50 0.59564
231.00 0.58658
231.50 0.57401
232.00 0.56140
232.50 0.54875
233.00 0.53557
233.50 0.51878
234.00 0.50383
234.50 0.48981
235.00 0.47564
235.50 0.46132
236.00 0.44529
236.50 0.42790
237.00 0.40751
237.50 0.38694
238.00 0.36622
238.50 0.34433
239.00 0.31744
239.50 0.29041
240.00 0.26816
240.50 0.24721
241.00 0.22616
241.50 0.20502
242.00 0.18110
242.50 0.15645
243.00 0.13924
243.50 0.12344
244.00 0.11095
244.50 0.09845
245.00 0.08595
245.50 0.07406
246.00 0.06610
246.50 0.05812
247.00 0.05013
247.50 0.04407
248.00 0.03816
248.50 0.03333
249.00 0.03007
249.50 0.02681
250.00 0.02355
250.50 0.02028
251.00 0.01719
251.50 0.01527
252.00 0.01374
252.50 0.01224
253.00 0.01075
253.50 0.00925
254.00 0.00778
254.50 0.00699
255.00 0.00620
255.50 0.00541
256.00 0.00472
256.50 0.00405
257.00 0.00360
257.50 0.00323
258.00 0.00288
258.50 0.00254
259.00 0.00220
259.50 0.00187
260.00 0.00168
260.50 0.00149
261.00 0.00131
261.50 0.00116
262.00 0.00103
262.50 0.00090
263.00 0.00080
263.50 0.00071
264.00 0.00062
264.50 0.00057
265.00 0.00051
265.50 0.00045
266.00 0.00040
266.50 0.00036
267.00 0.00033
267.50 0.00031
268.00 0.00028
268.50 0.00026
269.00 0.00025
269.50 0.00024
270.00 0.00023
270.00 0.00023
270.50 0.00024
271.00 0.00025
271.50 0.00026
272.00 0.00028
272.50 0.00031
273.00 0.00033
273.50 0.00036
274.00 0.00040
274.50 0.00045
275.00 0.00051
275.50 0.00057
276.00 0.00062
276.50 0.00071
277.00 0.00080
277.50 0.00090
278.00 0.00103
278.50 0.00116
279.00 0.00131
279.50 0.00149
280.00 0.00168
280.50 0.00187
281.00 0.00220
281.50 0.00254
282.00 0.00288
282.50 0.00323
283.00 0.00360
283.50 0.00405
284.00 0.00472
284.50 0.00541
285.00 0.00620
285.50 0.00699
286.00 0.00778
286.50 0.00925
287.00 0.01075
287.50 0.01224
288.00 0.01374
288.50 0.01527
289.00 0.01719
289.50 0.02028
290.00 0.02355
290.50 0.02681
291.00 0.03007
291.50 0.03333
292.00 0.03816
292.50 0.04407
293.00 0.05013
293.50 0.05812
294.00 0.06610
294.50 0.07406
295.00 0.08595
295.50 0.09845
296.00 0.11095
296.50 0.12344
297.00 0.13924
297.50 0.15645
298.00 0.18110
298.50 0.20502
299.00 0.22616
299.50 0.24721
300.00 0.26816
300.50 0.29041
301.00 0.31744
301.50 0.34433
302.00 0.36622
302.50 0.38694
303.00 0.40751
303.50 0.42790
304.00 0.44529
304.50 0.46132
305.00 0.47564
305.50 0.48981
306.00 0.50383
306.50 0.51878
307.00 0.53557
307.50 0.54875
308.00 0.56140
308.50 0.57401
309.00 0.58658
309.50 0.59564
310.00 0.60517
310.50 0.61682
311.00 0.62924
311.50 0.64240
312.00 0.65497
312.50 0.66779
313.00 0.68233
313.50 0.69645
314.00 0.71164
314.50 0.72787
315.00 0.74394
315.50 0.76133
316.00 0.77888
316.50 0.79694
317.00 0.81542
317.50 0.83397
318.00 0.85351
318.50 0.87313
319.00 0.89292
319.50 0.91315
320.00 0.93355
320.50 0.95430
321.00 0.97527
321.50 0.99625
322.00 1.01726
322.50 1.03715
323.00 1.05705
323.50 1.07739
324.00 1.09846
324.50 1.11781
325.00 1.13394
325.50 1.15083
326.00 1.16790
326.50 1.18499
327.00 1.20209
327.50 1.21920
328.00 1.23573
328.50 1.24914
329.00 1.26292
329.50 1.27799
330.00 1.29339
330.50 1.30883
331.00 1.32433
331.50 1.33988
332.00 1.35511
332.50 1.37032
333.00 1.38445
333.50 1.39724
334.00 1.41006
334.50 1.42291
335.00 1.43580
335.50 1.45000
336.00 1.46212
336.50 1.46736
337.00 1.47459
337.50 1.48254
338.00 1.49053
338.50 1.49855
339.00 1.50541
339.50 1.50713
340.00 1.50891
340.50 1.51182
341.00 1.51523
341.50 1.51872
342.00 1.52227
342.50 1.52535
343.00 1.52684
343.50 1.52873
344.00 1.53089
344.50 1.53312
345.00 1.53544
345.50 1.53784
346.00 1.54034
346.50 1.54217
347.00 1.54379
347.50 1.54490
348.00 1.54474
348.50 1.54466
349.00 1.54467
349.50 1.54476
350.00 1.54366
350.50 1.54183
351.00 1.53914
351.50 1.53773
352.00 1.53679
352.50 1.53597
353.00 1.53527
353.50 1.53437
354.00 1.53320
354.50 1.53215
355.00 1.53157
355.50 1.53123
356.00 1.53102
356.50 1.53091
357.00 1.53092
357.50 1.53106
358.00 1.53131
358.50 1.53151
359.00 1.53183
359.50 1.53226
360.00 1.53281
