phi[deg] B[T]
0.00 1.49661
0.50 1.49577
1.00 1.49504
1.50 1.49442
2.00 1.49384
2.50 1.49298
3.00 1.49225
3.50 1.49163
4.00 1.49119
4.50 1.49106
5.00 1.49104
5.50 1.49132
6.00 1.49179
6.50 1.49237
7.00 1.49297
7.50 1.49368
8.00 1.49451
8.50 1.49545
9.00 1.49758
9.50 1.50000
10.00 1.50193
10.50 1.50252
11.00 1.50287
11.50 1.50330
12.00 1.50381
12.50 1.50277
13.00 1.50119
13.50 1.49966
14.00 1.49780
14.50 1.49603
15.00 1.49435
15.50 1.49227
16.00 1.49019
16.50 1.48811
17.00 1.48526
17.50 1.48250
18.00 1.47983
18.50 1.47768
19.00 1.47687
19.50 1.47597
20.00 1.47481
20.50 1.47022
21.00 1.46567
21.50 1.46115
22.00 1.45650
22.50 1.45062
23.00 1.44478
23.50 1.43650
24.00 1.42557
24.50 1.41465
25.00 1.40369
25.50 1.38805
26.00 1.37244
26.50 1.35696
27.00 1.34161
27.50 1.32630
28.00 1.31104
28.50 1.29535
29.00 1.27926
29.50 1.26474
30.00 1.24971
30.50 1.23390
31.00 1.21814
31.50 1.20243
32.00 1.18716
32.50 1.17347
33.00 1.15983
33.50 1.14274
34.00 1.12497
34.50 1.10723
35.00 1.08951
35.50 1.07306
36.00 1.05656
36.50 1.03571
37.00 1.01494
37.50 0.99541
38.00 0.97576
38.50 0.95550
39.00 0.93528
39.50 0.91531
40.00 0.89539
40.50 0.87580
41.00 0.85696
41.50 0.83821
42.00 0.82012
42.50 0.80208
43.00 0.78455
43.50 0.76755
44.00 0.75097
44.50 0.73493
45.00 0.71900
45.50 0.70435
46.00 0.68968
46.50 0.67619
47.00 0.66321
47.50 0.65027
48.00 0.63855
48.50 0.62940
49.00 0.61904
49.50 0.60721
50.00 0.59539
50.50 0.58620
51.00 0.57906
51.50 0.56927
52.00 0.55601
52.50 0.54267
53.00 0.52927
53.50 0.51805
54.00 0.50893
54.50 0.49443
55.00 0.47608
55.50 0.45756
56.00 0.43886
56.50 0.42000
57.00 0.40251
57.50 0.38510
58.00 0.35611
58.50 0.33173
59.00 0.30887
59.50 0.28587
60.00 0.26239
60.50 0.23668
61.00 0.21085
61.50 0.18490
62.00 0.16145
62.50 0.14208
63.00 0.12789
63.50 0.11361
64.00 0.09920
64.50 0.08476
65.00 0.07031
65.50 0.06226
66.00 0.05510
66.50 0.04793
67.00 0.04094
67.50 0.03399
68.00 0.03008
68.50 0.02656
69.00 0.02314
69.50 0.01973
70.00 0.01631
70.50 0.01458
71.00 0.01292
71.50 0.01125
72.00 0.00957
72.50 0.00800
73.00 0.00700
73.50 0.00623
74.00 0.00548
74.50 0.00474
75.00 0.00399
75.50 0.00341
76.00 0.00302
76.50 0.00263
77.00 0.00226
77.50 0.00193
78.00 0.00167
78.50 0.00150
79.00 0.00133
79.50 0.00117
80.00 0.00101
80.50 0.00086
81.00 0.00076
81.50 0.00067
82.00 0.00059
82.50 0.00053
83.00 0.00047
83.50 0.00042
84.00 0.00037
84.50 0.00032
85.00 0.00029
85.50 0.00026
86.00 0.00022
86.50 0.00019
87.00 0.00017
87.50 0.00014
88.00 0.00012
88.50 0.00010
89.00 0.00009
89.50 0.00007
90.00 0.00006
90.00 0.00006
90.50 0.00007
91.00 0.00009
91.50 0.00010
92.00 0.00012
92.50 0.00014
93.00 0.00017
93.50 0.00019
94.00 0.00022
94.50 0.00026
95.00 0.00029
95.50 0.00032
96.00 0.00037
96.50 0.00042
97.00 0.00047
97.50 0.00053
98.00 0.00059
98.50 0.00067
99.00 0.00076
99.50 0.00086
100.00 0.00101
100.50 0.00117
101.00 0.00133
101.50 0.00150
102.00 0.00167
102.50 0.00193
103.00 0.00226
103.50 0.00263
104.00 0.00302
104.50 0.00341
105.00 0.00399
105.50 0.00474
106.00 0.00548
106.50 0.00623
107.00 0.00700
107.50 0.00800
108.00 0.00957
108.50 0.01125
109.00 0.01292
109.50 0.01458
110.00 0.01631
110.50 0.01973
111.00 0.02314
111.50 0.02656
112.00 0.03008
112.50 0.03399
113.00 0.04094
113.50 0.04793
114.00 0.05510
114.50 0.06226
115.00 0.07031
115.50 0.08476
116.00 0.09920
116.50 0.11361
117.00 0.12789
117.50 0.14208
118.00 0.16145
118.50 0.18490
119.00 0.21085
119.50 0.23668
120.00 0.26239
120.50 0.28587
121.00 0.30887
121.50 0.33173
122.00 0.35611
122.50 0.38510
123.00 0.40251
123.50 0.42000
124.00 0.43886
124.50 0.45756
125.00 0.47608
125.50 0.49443
126.00 0.50893
126.50 0.51805
127.00 0.52927
127.50 0.54267
128.00 0.55601
128.50 0.56927
129.00 0.57906
129.50 0.58620
130.00 0.59539
130.50 0.60721
131.00 0.61904
131.50 0.62940
132.00 0.63855
132.50 0.65027
133.00 0.66321
133.50 0.67619
134.00 0.68968
134.50 0.70435
135.00 0.71900
135.50 0.73493
136.00 0.75097
136.50 0.76755
137.00 0.78455
137.50 0.80208
138.00 0.82012
138.50 0.83821
139.00 0.85696
139.50 0.87580
140.00 0.89539
140.50 0.91531
141.00 0.93528
141.50 0.95550
142.00 0.97576
142.50 0.99541
143.00 1.01494
143.50 1.03571
144.00 1.05656
144.50 1.07306
145.00 1.08951
145.50 1.10723
146.00 1.12497
146.50 1.14274
147.00 1.15983
147.50 1.17347
148.00 1.18716
148.50 1.20243
149.00 1.21814
149.50 1.23390
150.00 1.24971
150.50 1.26474
151.00 1.27926
151.50 1.29535
152.00 1.31104
152.50 1.32630
153.00 1.34161
153.50 1.35696
154.00 1.37244
154.50 1.38805
155.00 1.40369
155.50 1.41465
156.00 1.42557
156.50 1.43650
157.00 1.44478
157.50 1.45062
158.00 1.45650
158.50 1.46115
159.00 1.46567
159.50 1.47022
160.00 1.47481
160.50 1.47597
161.00 1.47687
161.50 1.47768
162.00 1.47983
162.50 1.48250
163.00 1.48526
163.50 1.48811
164.00 1.49019
164.50 1.49227
165.00 1.49435
165.50 1.49603
166.00 1.49780
166.50 1.49966
167.00 1.50119
167.50 1.50277
168.00 1.50381
168.50 1.50330
169.00 1.50287
169.50 1.50252
170.00 1.50193
170.50 1.50000
171.00 1.49758
171.50 1.49545
172.00 1.49451
172.50 1.49368
173.00 1.49297
173.50 1.49237
174.00 1.49179
174.50 1.49132
175.00 1.49104
175.50 1.49106
176.00 1.49119
176.50 1.49163
177.00 1.49225
177.50 1.49298
178.00 1.49384
178.50 1.49442
179.00 1.49504
179.50 1.49577
180.00 1.49661
180.00 1.49661
180.50 1.49577
181.00 1.49504
181.50 1.49442
182.00 1.49384
182.50 1.49298
183.00 1.49225
183.50 1.49163
184.00 1.49119
184.50 1.49106
185.00 1.49104
185.50 1.49132
186.00 1.49179
186.50 1.49237
187.00 1.49297
187.50 1.49368
188.00 1.49451
188.50 1.49545
189.00 1.49758
189.50 1.50000
190.00 1.50193
190.50 1.50252
191.00 1.50287
191.50 1.50330
192.00 1.50381
192.50 1.50277
193.00 1.50119
193.50 1.49966
194.00 1.49780
194.50 1.49603
195.00 1.49435
195.50 1.49227
196.00 1.49019
196.50 1.48811
197.00 1.48526
197.50 1.48250
198.00 1.47983
198.50 1.47768
199.00 1.47687
199.50 1.47597
200.00 1.47481
200.50 1.47022
201.00 1.46567
201.50 1.46115
202.00 1.45650
202.50 1.45062
203.00 1.44478
203.50 1.43650
204.00 1.42557
204.50 1.41465
205.00 1.40369
205.50 1.38805
206.00 1.37244
206.50 1.35696
207.00 1.34161
207.50 1.32630
208.00 1.31104
208.50 1.29535
209.00 1.27926
209.50 1.26474
210.00 1.24971
210.50 1.23390
211.00 1.21814
211.50 1.20243
212.00 1.18716
212.50 1.17347
213.00 1.15983
213.50 1.14274
214.00 1.12497
214.50 1.10723
215.00 1.08951
215.50 1.07306
216.00 1.05656
216.50 1.03571
217.00 1.01494
217.50 0.99541
218.00 0.97576
218.50 0.95550
219.00 0.93528
219.50 0.91531
220.00 0.89539
220.50 0.87580
221.00 0.85696
221.50 0.83821
222.00 0.82012
222.50 0.80208
223.00 0.78455
223.50 0.76755
224.00 0.75097
224.50 0.73493
225.00 0.71900
225.50 0.70435
226.00 0.68968
226.50 0.67619
227.00 0.66321
227.50 0.65027
228.00 0.63855
228.50 0.62940
229.00 0.61904
229.50 0.60721
230.00 0.59539
230.50 0.58620
231.00 0.57906
231.50 0.56927
232.00 0.55601
232.50 0.54267
233.00 0.52927
233.50 0.51805
234.00 0.50893
234.50 0.49443
235.00 0.47608
235.50 0.45756
236.00 0.43886
236.50 0.42000
237.00 0.40251
237.50 0.38510
238.00 0.35611
238.50 0.33173
239.00 0.30887
239.50 0.28587
240.00 0.26239
240.50 0.23668
241.00 0.21085
241.50 0.18490
242.00 0.16145
242.50 0.14208
243.00 0.12789
243.50 0.11361
244.00 0.09920
244.50 0.08476
245.00 0.07031
245.50 0.06226
246.00 0.05510
246.50 0.04793
247.00 0.04094
247.50 0.03399
248.00 0.03008
248.50 0.02656
249.00 0.02314
249.50 0.01973
250.00 0.01631
250.50 0.01458
251.00 0.01292
251.50 0.01125
252.00 0.00957
252.50 0.00800
253.00 0.00700
253.50 0.00623
254.00 0.00548
254.50 0.00474
255.00 0.00399
255.50 0.00341
256.00 0.00302
256.50 0.00263
257.00 0.00226
257.50 0.00193
258.00 0.00167
258.50 0.00150
259.00 0.00133
259.50 0.00117
260.00 0.00101
260.50 0.00086
261.00 0.00076
261.50 0.00067
262.00 0.00059
262.50 0.00053
263.00 0.00047
263.50 0.00042
264.00 0.00037
264.50 0.00032
265.00 0.00029
265.50 0.00026
266.00 0.00022
266.50 0.00019
267.00 0.00017
267.50 0.00014
268.00 0.00012
268.50 0.00010
269.00 0.00009
269.50 0.00007
270.00 0.00006
270.00 0.00006
270.50 0.00007
271.00 0.00009
271.50 0.00010
272.00 0.00012
272.50 0.00014
273.00 0.00017
273.50 0.00019
274.00 0.00022
274.50 0.00026
275.00 0.00029
275.50 0.00032
276.00 0.00037
276.50 0.00042
277.00 0.00047
277.50 0.00053
278.00 0.00059
278.50 0.00067
279.00 0.00076
279.50 0.00086
280.00 0.00101
280.50 0.00117
281.00 0.00133
281.50 0.00150
282.00 0.00167
282.50 0.00193
283.00 0.00226
283.50 0.00263
284.00 0.00302
284.50 0.00341
285.00 0.00399
285.50 0.00474
286.00 0.00548
286.50 0.00623
287.00 0.00700
287.50 0.00800
288.00 0.00957
288.50 0.01125
289.00 0.01292
289.50 0.01458
290.00 0.01631
290.50 0.01973
291.00 0.02314
291.50 0.02656
292.00 0.03008
292.50 0.03399
293.00 0.04094
293.50 0.04793
294.00 0.05510
294.50 0.06226
295.00 0.07031
295.50 0.08476
296.00 0.09920
296.50 0.11361
297.00 0.12789
297.50 0.14208
298.00 0.16145
298.50 0.18490
299.00 0.21085
299.50 0.23668
300.00 0.26239
300.50 0.28587
301.00 0.30887
301.50 0.33173
302.00 0.35611
302.50 0.38510
303.00 0.40251
303.50 0.42000
304.00 0.43886
304.50 0.45756
305.00 0.47608
305.50 0.49443
306.00 0.50893
306.50 0.51805
307.00 0.52927
307.50 0.54267
308.00 0.55601
308.50 0.56927
309.00 0.57906
309.50 0.58620
310.00 0.59539
310.50 0.60721
311.00 0.61904
311.50 0.62940
312.00 0.63855
312.50 0.65027
313.00 0.66321
313.50 0.67619
314.00 0.68968
314.50 0.70435
315.00 0.71900
315.50 0.73493
316.00 0.75097
316.50 0.76755
317.00 0.78455
317.50 0.80208
318.00 0.82012
318.50 0.83821
319.00 0.85696
319.50 0.87580
320.00 0.89539
320.50 0.91531
321.00 0.93528
321.50 0.95550
322.00 0.97576
322.50 0.99541
323.00 1.01494
323.50 1.03571
324.00 1.05656
324.50 1.07306
325.00 1.08951
325.50 1.10723
326.00 1.12497
326.50 1.14274
327.00 1.15983
327.50 1.17347
328.00 1.18716
328.50 1.20243
329.00 1.21814
329.50 1.23390
330.00 1.24971
330.50 1.26474
331.00 1.27926
331.50 1.29535
332.00 1.31104
332.50 1.32630
333.00 1.34161
333.50 1.35696
334.00 1.37244
334.50 1.38805
335.00 1.40369
335.50 1.41465
336.00 1.42557
336.50 1.43650
337.00 1.44478
337.50 1.45062
338.00 1.45650
338.50 1.46115
339.00 1.46567
339.50 1.47022
340.00 1.47481
340.50 1.47597
341.00 1.47687
341.50 1.47768
342.00 1.47983
342.50 1.48250
343.00 1.48526
343.50 1.48811
344.00 1.49019
344.50 1.49227
345.00 1.49435
345.50 1.49603
346.00 1.49780
346.50 1.49966
347.00 1.50119
347.50 1.50277
348.00 1.50381
348.50 1.50330
349.00 1.50287
349.50 1.50252
350.00 1.50193
350.50 1.50000
351.00 1.49758
351.50 1.49545
352.00 1.49451
352.50 1.49368
353.00 1.49297
353.50 1.49237
354.00 1.49179
354.50 1.49132
355.00 1.49104
355.50 1.49106
356.00 1.49119
356.50 1.49163
357.00 1.49225
357.50 1.49298
358.00 1.49384
358.50 1.49442
359.00 1.49504
359.50 1.49577
360.00 1.49661
