phi[deg] B[T]
0.00 1.34258
0.50 1.34184
1.00 1.34120
1.50 1.34065
2.00 1.34006
2.50 1.33925
3.00 1.33855
3.50 1.33795
4.00 1.33748
4.50 1.33721
5.00 1.33704
5.50 1.33686
6.00 1.33676
6.50 1.33676
7.00 1.33703
7.50 1.33743
8.00 1.33794
8.50 1.33855
9.00 1.33986
9.50 1.34128
10.00 1.34266
10.50 1.34355
11.00 1.34428
11.50 1.34511
12.00 1.34602
12.50 1.34637
13.00 1.34658
13.50 1.34683
14.00 1.34678
14.50 1.34683
15.00 1.34697
15.50 1.34718
16.00 1.34747
16.50 1.34779
17.00 1.34743
17.50 1.34715
18.00 1.34696
18.50 1.34707
19.00 1.34842
19.50 1.34987
20.00 1.35140
20.50 1.35004
21.00 1.34862
21.50 1.34725
22.00 1.34592
22.50 1.34410
23.00 1.34232
23.50 1.33858
24.00 1.33202
24.50 1.32547
25.00 1.31894
25.50 1.30924
26.00 1.29934
26.50 1.28890
27.00 1.27742
27.50 1.26598
28.00 1.25456
28.50 1.24301
29.00 1.23116
29.50 1.21949
30.00 1.20707
30.50 1.19381
31.00 1.18057
31.50 1.16737
32.00 1.15420
32.50 1.14268
33.00 1.13118
33.50 1.11594
34.00 1.09931
34.50 1.08267
35.00 1.06604
35.50 1.05131
36.00 1.03750
36.50 1.01924
37.00 0.99896
37.50 0.97836
38.00 0.95762
38.50 0.93685
39.00 0.91561
39.50 0.89425
40.00 0.87142
40.50 0.84854
41.00 0.82570
41.50 0.80264
42.00 0.77950
42.50 0.75626
43.00 0.73265
43.50 0.70923
44.00 0.68548
44.50 0.66139
45.00 0.63733
45.50 0.61404
46.00 0.59102
46.50 0.56856
47.00 0.54659
47.50 0.52544
48.00 0.50648
48.50 0.48776
49.00 0.47114
49.50 0.45667
50.00 0.44225
50.50 0.42863
51.00 0.41599
51.50 0.40902
52.00 0.39999
52.50 0.38908
53.00 0.37718
53.50 0.36664
54.00 0.35912
54.50 0.35155
55.00 0.33887
55.50 0.32404
56.00 0.30914
56.50 0.29491
57.00 0.28511
57.50 0.27193
58.00 0.25314
58.50 0.23608
59.00 0.21984
59.50 0.20350
60.00 0.18567
60.50 0.16702
61.00 0.14829
61.50 0.13155
62.00 0.11829
62.50 0.10580
63.00 0.09323
63.50 0.08026
64.00 0.06778
64.50 0.06019
65.00 0.05290
65.50 0.04575
66.00 0.03951
66.50 0.03526
67.00 0.03100
67.50 0.02674
68.00 0.02248
68.50 0.01957
69.00 0.01754
69.50 0.01549
70.00 0.01345
70.50 0.01141
71.00 0.00937
71.50 0.00824
72.00 0.00742
72.50 0.00661
73.00 0.00580
73.50 0.00499
74.00 0.00418
74.50 0.00342
75.00 0.00308
75.50 0.00273
76.00 0.00238
76.50 0.00203
77.00 0.00171
77.50 0.00153
78.00 0.00135
78.50 0.00117
79.00 0.00102
79.50 0.00092
80.00 0.00081
80.50 0.00071
81.00 0.00062
81.50 0.00056
82.00 0.00050
82.50 0.00044
83.00 0.00038
83.50 0.00035
84.00 0.00031
84.50 0.00027
85.00 0.00024
85.50 0.00022
86.00 0.00019
86.50 0.00017
87.00 0.00014
87.50 0.00013
88.00 0.00011
88.50 0.00009
89.00 0.00009
89.50 0.00008
90.00 0.00007
90.00 0.00007
90.50 0.00008
91.00 0.00009
91.50 0.00009
92.00 0.00011
92.50 0.00013
93.00 0.00014
93.50 0.00017
94.00 0.00019
94.50 0.00022
95.00 0.00024
95.50 0.00027
96.00 0.00031
96.50 0.00035
97.00 0.00038
97.50 0.00044
98.00 0.00050
98.50 0.00056
99.00 0.00062
99.50 0.00071
100.00 0.00081
100.50 0.00092
101.00 0.00102
101.50 0.00117
102.00 0.00135
102.50 0.00153
103.00 0.00171
103.50 0.00203
104.00 0.00238
104.50 0.00273
105.00 0.00308
105.50 0.00342
106.00 0.00418
106.50 0.00499
107.00 0.00580
107.50 0.00661
108.00 0.00742
108.50 0.00824
109.00 0.00937
109.50 0.01141
110.00 0.01345
110.50 0.01549
111.00 0.01754
111.50 0.01957
112.00 0.02248
112.50 0.02674
113.00 0.03100
113.50 0.03526
114.00 0.03951
114.50 0.04575
115.00 0.05290
115.50 0.06019
116.00 0.06778
116.50 0.08026
117.00 0.09323
117.50 0.10580
118.00 0.11829
118.50 0.13155
119.00 0.14829
119.50 0.16702
120.00 0.18567
120.50 0.20350
121.00 0.21984
121.50 0.23608
122.00 0.25314
122.50 0.27193
123.00 0.28511
123.50 0.29491
124.00 0.30914
124.50 0.32404
125.00 0.33887
125.50 0.35155
126.00 0.35912
126.50 0.36664
127.00 0.37718
127.50 0.38908
128.00 0.39999
128.50 0.40902
129.00 0.41599
129.50 0.42863
130.00 0.44225
130.50 0.45667
131.00 0.47114
131.50 0.48776
132.00 0.50648
132.50 0.52544
133.00 0.54659
133.50 0.56856
134.00 0.59102
134.50 0.61404
135.00 0.63733
135.50 0.66139
136.00 0.68548
136.50 0.70923
137.00 0.73265
137.50 0.75626
138.00 0.77950
138.50 0.80264
139.00 0.82570
139.50 0.84854
140.00 0.87142
140.50 0.89425
141.00 0.91561
141.50 0.93685
142.00 0.95762
142.50 0.97836
143.00 0.99896
143.50 1.01924
144.00 1.03750
144.50 1.05131
145.00 1.06604
145.50 1.08267
146.00 1.09931
146.50 1.11594
147.00 1.13118
147.50 1.14268
148.00 1.15420
148.50 1.16737
149.00 1.18057
149.50 1.19381
150.00 1.20707
150.50 1.21949
151.00 1.23116
151.50 1.24301
152.00 1.25456
152.50 1.26598
153.00 1.27742
153.50 1.28890
154.00 1.29934
154.50 1.30924
155.00 1.31894
155.50 1.32547
156.00 1.33202
156.50 1.33858
157.00 1.34232
157.50 1.34410
158.00 1.34592
158.50 1.34725
159.00 1.34862
159.50 1.35004
160.00 1.35140
160.50 1.34987
161.00 1.34842
161.50 1.34707
162.00 1.34696
162.50 1.34715
163.00 1.34743
163.50 1.34779
164.00 1.34747
164.50 1.34718
165.00 1.34697
165.50 1.34683
166.00 1.34678
166.50 1.34683
167.00 1.34658
167.50 1.34637
168.00 1.34602
168.50 1.34511
169.00 1.34428
169.50 1.34355
170.00 1.34266
170.50 1.34128
171.00 1.33986
171.50 1.33855
172.00 1.33794
172.50 1.33743
173.00 1.33703
173.50 1.33676
174.00 1.33676
174.50 1.33686
175.00 1.33704
175.50 1.33721
176.00 1.33748
176.50 1.33795
177.00 1.33855
177.50 1.33925
178.00 1.34006
178.50 1.34065
179.00 1.34120
179.50 1.34184
180.00 1.34258
180.00 1.34258
180.50 1.34184
181.00 1.34120
181.50 1.34065
182.00 1.34006
182.50 1.33925
183.00 1.33855
183.50 1.33795
184.00 1.33748
184.50 1.33721
185.00 1.33704
185.50 1.33686
186.00 1.33676
186.50 1.33676
187.00 1.33703
187.50 1.33743
188.00 1.33794
188.50 1.33855
189.00 1.33986
189.50 1.34128
190.00 1.34266
190.50 1.34355
191.00 1.34428
191.50 1.34511
192.00 1.34602
192.50 1.34637
193.00 1.34658
193.50 1.34683
194.00 1.34678
194.50 1.34683
195.00 1.34697
195.50 1.34718
196.00 1.34747
196.50 1.34779
197.00 1.34743
197.50 1.34715
198.00 1.34696
198.50 1.34707
199.00 1.34842
199.50 1.34987
200.00 1.35140
200.50 1.35004
201.00 1.34862
201.50 1.34725
202.00 1.34592
202.50 1.34410
203.00 1.34232
203.50 1.33858
204.00 1.33202
204.50 1.32547
205.00 1.31894
205.50 1.30924
206.00 1.29934
206.50 1.28890
207.00 1.27742
207.50 1.26598
208.00 1.25456
208.50 1.24301
209.00 1.23116
209.50 1.21949
210.00 1.20707
210.50 1.19381
211.00 1.18057
211.50 1.16737
212.00 1.15420
212.50 1.14268
213.00 1.13118
213.50 1.11594
214.00 1.09931
214.50 1.08267
215.00 1.06604
215.50 1.05131
216.00 1.03750
216.50 1.01924
217.00 0.99896
217.50 0.97836
218.00 0.95762
218.50 0.93685
219.00 0.91561
219.50 0.89425
220.00 0.87142
220.50 0.84854
221.00 0.82570
221.50 0.80264
222.00 0.77950
222.50 0.75626
223.00 0.73265
223.50 0.70923
224.00 0.68548
224.50 0.66139
225.00 0.63733
225.50 0.61404
226.00 0.59102
226.50 0.56856
227.00 0.54659
227.50 0.52544
228.00 0.50648
228.50 0.48776
229.00 0.47114
229.50 0.45667
230.00 0.44225
230.50 0.42863
231.00 0.41599
231.50 0.40902
232.00 0.39999
232.50 0.38908
233.00 0.37718
233.50 0.36664
234.00 0.35912
234.50 0.35155
235.00 0.33887
235.50 0.32404
236.00 0.30914
236.50 0.29491
237.00 0.28511
237.50 0.27193
238.00 0.25314
238.50 0.23608
239.00 0.21984
239.50 0.20350
240.00 0.18567
240.50 0.16702
241.00 0.14829
241.50 0.13155
242.00 0.11829
242.50 0.10580
243.00 0.09323
243.50 0.08026
244.00 0.06778
244.50 0.06019
245.00 0.05290
245.50 0.04575
246.00 0.03951
246.50 0.03526
247.00 0.03100
247.50 0.02674
248.00 0.02248
248.50 0.01957
249.00 0.01754
249.50 0.01549
250.00 0.01345
250.50 0.01141
251.00 0.00937
251.50 0.00824
252.00 0.00742
252.50 0.00661
253.00 0.00580
253.50 0.00499
254.00 0.00418
254.50 0.00342
255.00 0.00308
255.50 0.00273
256.00 0.00238
256.50 0.00203
257.00 0.00171
257.50 0.00153
258.00 0.00135
258.50 0.00117
259.00 0.00102
259.50 0.00092
260.00 0.00081
260.50 0.00071
261.00 0.00062
261.50 0.00056
262.00 0.00050
262.50 0.00044
263.00 0.00038
263.50 0.00035
264.00 0.00031
264.50 0.00027
265.00 0.00024
265.50 0.00022
266.00 0.00019
266.50 0.00017
267.00 0.00014
267.50 0.00013
268.00 0.00011
268.50 0.00009
269.00 0.00009
269.50 0.00008
270.00 0.00007
270.00 0.00007
270.50 0.00008
271.00 0.00009
271.50 0.00009
272.00 0.00011
272.50 0.00013
273.00 0.00014
273.50 0.00017
274.00 0.00019
274.50 0.00022
275.00 0.00024
275.50 0.00027
276.00 0.00031
276.50 0.00035
277.00 0.00038
277.50 0.00044
278.00 0.00050
278.50 0.00056
279.00 0.00062
279.50 0.00071
280.00 0.00081
280.50 0.00092
281.00 0.00102
281.50 0.00117
282.00 0.00135
282.50 0.00153
283.00 0.00171
283.50 0.00203
284.00 0.00238
284.50 0.00273
285.00 0.00308
285.50 0.00342
286.00 0.00418
286.50 0.00499
287.00 0.00580
287.50 0.00661
288.00 0.00742
288.50 0.00824
289.00 0.00937
289.50 0.01141
290.00 0.01345
290.50 0.01549
291.00 0.01754
291.50 0.01957
292.00 0.02248
292.50 0.02674
293.00 0.03100
293.50 0.03526
294.00 0.03951
294.50 0.04575
295.00 0.05290
295.50 0.06019
296.00 0.06778
296.50 0.08026
297.00 0.09323
297.50 0.10580
298.00 0.11829
298.50 0.13155
299.00 0.14829
299.50 0.16702
300.00 0.18567
300.50 0.20350
301.00 0.21984
301.50 0.23608
302.00 0.25314
302.50 0.27193
303.00 0.28511
303.50 0.29491
304.00 0.30914
304.50 0.32404
305.00 0.33887
305.50 0.35155
306.00 0.35912
306.50 0.36664
307.00 0.37718
307.50 0.38908
308.00 0.39999
308.50 0.40902
309.00 0.41599
309.50 0.42863
310.00 0.44225
310.50 0.45667
311.00 0.47114
311.50 0.48776
312.00 0.50648
312.50 0.52544
313.00 0.54659
313.50 0.56856
314.00 0.59102
314.50 0.61404
315.00 0.63733
315.50 0.66139
316.00 0.68548
316.50 0.70923
317.00 0.73265
317.50 0.75626
318.00 0.77950
318.50 0.80264
319.00 0.82570
319.50 0.84854
320.00 0.87142
320.50 0.89425
321.00 0.91561
321.50 0.93685
322.00 0.95762
322.50 0.97836
323.00 0.99896
323.50 1.01924
324.00 1.03750
324.50 1.05131
325.00 1.06604
325.50 1.08267
326.00 1.09931
326.50 1.11594
327.00 1.13118
327.50 1.14268
328.00 1.15420
328.50 1.16737
329.00 1.18057
329.50 1.19381
330.00 1.20707
330.50 1.21949
331.00 1.23116
331.50 1.24301
332.00 1.25456
332.50 1.26598
333.00 1.27742
333.50 1.28890
334.00 1.29934
334.50 1.30924
335.00 1.31894
335.50 1.32547
336.00 1.33202
336.50 1.33858
337.00 1.34232
337.50 1.34410
338.00 1.34592
338.50 1.34725
339.00 1.34862
339.50 1.35004
340.00 1.35140
340.50 1.34987
341.00 1.34842
341.50 1.34707
342.00 1.34696
342.50 1.34715
343.00 1.34743
343.50 1.34779
344.00 1.34747
344.50 1.34718
345.00 1.34697
345.50 1.34683
346.00 1.34678
346.50 1.34683
347.00 1.34658
347.50 1.34637
348.00 1.34602
348.50 1.34511
349.00 1.34428
349.50 1.34355
350.00 1.34266
350.50 1.34128
351.00 1.33986
351.50 1.33855
352.00 1.33794
352.50 1.33743
353.00 1.33703
353.50 1.33676
354.00 1.33676
354.50 1.33686
355.00 1.33704
355.50 1.33721
356.00 1.33748
356.50 1.33795
357.00 1.33855
357.50 1.33925
358.00 1.34006
358.50 1.34065
359.00 1.34120
359.50 1.34184
360.00 1.34258
