phi[deg] B[T]
0.00 1.38649
0.50 1.38575
1.00 1.38510
1.50 1.38456
2.00 1.38379
2.50 1.38321
3.00 1.38274
3.50 1.38205
4.00 1.38123
4.50 1.38119
5.00 1.38134
5.50 1.38185
6.00 1.38278
6.50 1.38383
7.00 1.38471
7.50 1.38567
8.00 1.38733
8.50 1.38985
9.00 1.39247
9.50 1.39418
10.00 1.39490
10.50 1.39573
11.00 1.39712
11.50 1.39861
12.00 1.39986
12.50 1.39852
13.00 1.39725
13.50 1.39597
14.00 1.39397
14.50 1.39191
15.00 1.38935
15.50 1.38693
16.00 1.38482
16.50 1.38281
17.00 1.38096
17.50 1.37931
18.00 1.37776
18.50 1.37629
19.00 1.37450
19.50 1.37136
20.00 1.36742
20.50 1.36581
21.00 1.36424
21.50 1.36272
22.00 1.35835
22.50 1.35063
23.00 1.34295
23.50 1.33627
24.00 1.33106
24.50 1.31829
25.00 1.30411
25.50 1.29172
26.00 1.27937
26.50 1.26705
27.00 1.25274
27.50 1.23742
28.00 1.22221
28.50 1.20786
29.00 1.19356
29.50 1.17970
30.00 1.16604
30.50 1.15244
31.00 1.13870
31.50 1.12442
32.00 1.10879
32.50 1.09529
33.00 1.08217
33.50 1.06908
34.00 1.05402
34.50 1.03740
35.00 1.02123
35.50 1.00573
36.00 0.98872
36.50 0.96970
37.00 0.95070
37.50 0.93121
38.00 0.91202
38.50 0.89288
39.00 0.87376
39.50 0.85412
40.00 0.83485
40.50 0.81609
41.00 0.79744
41.50 0.77889
42.00 0.76079
42.50 0.74310
43.00 0.72556
43.50 0.70869
44.00 0.69192
44.50 0.67605
45.00 0.66019
45.50 0.64558
46.00 0.63109
46.50 0.61833
47.00 0.60547
47.50 0.59458
48.00 0.58356
48.50 0.57488
49.00 0.56672
49.50 0.55716
50.00 0.54814
50.50 0.54318
51.00 0.53850
51.50 0.52950
52.00 0.51870
52.50 0.50785
53.00 0.50007
53.50 0.49309
54.00 0.48405
54.50 0.46896
55.00 0.45353
55.50 0.43796
56.00 0.42220
56.50 0.40616
57.00 0.38998
57.50 0.36907
58.00 0.34693
58.50 0.32461
59.00 0.29834
59.50 0.26972
60.00 0.24112
60.50 0.22072
61.00 0.20022
61.50 0.17963
62.00 0.15473
62.50 0.12977
63.00 0.11349
63.50 0.09732
64.00 0.08509
64.50 0.07293
65.00 0.06257
65.50 0.05487
66.00 0.04715
66.50 0.03941
67.00 0.03313
67.50 0.02940
68.00 0.02566
68.50 0.02186
69.00 0.01807
69.50 0.01591
70.00 0.01395
70.50 0.01193
71.00 0.00991
71.50 0.00854
72.00 0.00748
72.50 0.00641
73.00 0.00535
73.50 0.00461
74.00 0.00404
74.50 0.00350
75.00 0.00297
75.50 0.00251
76.00 0.00221
76.50 0.00191
77.00 0.00166
77.50 0.00144
78.00 0.00122
78.50 0.00109
79.00 0.00096
79.50 0.00083
80.00 0.00074
80.50 0.00064
81.00 0.00058
81.50 0.00052
82.00 0.00047
82.50 0.00041
83.00 0.00037
83.50 0.00034
84.00 0.00031
84.50 0.00027
85.00 0.00024
85.50 0.00021
86.00 0.00019
86.50 0.00016
87.00 0.00014
87.50 0.00011
88.00 0.00009
88.50 0.00007
89.00 0.00006
89.50 0.00005
90.00 0.00004
90.00 0.00004
90.50 0.00005
91.00 0.00006
91.50 0.00007
92.00 0.00009
92.50 0.00011
93.00 0.00014
93.50 0.00016
94.00 0.00019
94.50 0.00021
95.00 0.00024
95.50 0.00027
96.00 0.00031
96.50 0.00034
97.00 0.00037
97.50 0.00041
98.00 0.00047
98.50 0.00052
99.00 0.00058
99.50 0.00064
100.00 0.00074
100.50 0.00083
101.00 0.00096
101.50 0.00109
102.00 0.00122
102.50 0.00144
103.00 0.00166
103.50 0.00191
104.00 0.00221
104.50 0.00251
105.00 0.00297
105.50 0.00350
106.00 0.00404
106.50 0.00461
107.00 0.00535
107.50 0.00641
108.00 0.00748
108.50 0.00854
109.00 0.00991
109.50 0.01193
110.00 0.01395
110.50 0.01591
111.00 0.01807
111.50 0.02186
112.00 0.02566
112.50 0.02940
113.00 0.03313
113.50 0.03941
114.00 0.04715
114.50 0.05487
115.00 0.06257
115.50 0.07293
116.00 0.08509
116.50 0.09732
117.00 0.11349
117.50 0.12977
118.00 0.15473
118.50 0.17963
119.00 0.20022
119.50 0.22072
120.00 0.24112
120.50 0.26972
121.00 0.29834
121.50 0.32461
122.00 0.34693
122.50 0.36907
123.00 0.38998
123.50 0.40616
124.00 0.42220
124.50 0.43796
125.00 0.45353
125.50 0.46896
126.00 0.48405
126.50 0.49309
127.00 0.50007
127.50 0.50785
128.00 0.51870
128.50 0.52950
129.00 0.53850
129.50 0.54318
130.00 0.54814
130.50 0.55716
131.00 0.56672
131.50 0.57488
132.00 0.58356
132.50 0.59458
133.00 0.60547
133.50 0.61833
134.00 0.63109
134.50 0.64558
135.00 0.66019
135.50 0.67605
136.00 0.69192
136.50 0.70869
137.00 0.72556
137.50 0.74310
138.00 0.76079
138.50 0.77889
139.00 0.79744
139.50 0.81609
140.00 0.83485
140.50 0.85412
141.00 0.87376
141.50 0.89288
142.00 0.91202
142.50 0.93121
143.00 0.95070
143.50 0.96970
144.00 0.98872
144.50 1.00573
145.00 1.02123
145.50 1.03740
146.00 1.05402
146.50 1.06908
147.00 1.08217
147.50 1.09529
148.00 1.10879
148.50 1.12442
149.00 1.13870
149.50 1.15244
150.00 1.16604
150.50 1.17970
151.00 1.19356
151.50 1.20786
152.00 1.22221
152.50 1.23742
153.00 1.25274
153.50 1.26705
154.00 1.27937
154.50 1.29172
155.00 1.30411
155.50 1.31829
156.00 1.33106
156.50 1.33627
157.00 1.34295
157.50 1.35063
158.00 1.35835
158.50 1.36272
159.00 1.36424
159.50 1.36581
160.00 1.36742
160.50 1.37136
161.00 1.37450
161.50 1.37629
162.00 1.37776
162.50 1.37931
163.00 1.38096
163.50 1.38281
164.00 1.38482
164.50 1.38693
165.00 1.38935
165.50 1.39191
166.00 1.39397
166.50 1.39597
167.00 1.39725
167.50 1.39852
168.00 1.39986
168.50 1.39861
169.00 1.39712
169.50 1.39573
170.00 1.39490
170.50 1.39418
171.00 1.39247
171.50 1.38985
172.00 1.38733
172.50 1.38567
173.00 1.38471
173.50 1.38383
174.00 1.38278
174.50 1.38185
175.00 1.38134
175.50 1.38119
176.00 1.38123
176.50 1.38205
177.00 1.38274
177.50 1.38321
178.00 1.38379
178.50 1.38456
179.00 1.38510
179.50 1.38575
180.00 1.38649
180.00 1.38649
180.50 1.38575
181.00 1.38510
181.50 1.38456
182.00 1.38379
182.50 1.38321
183.00 1.38274
183.50 1.38205
184.00 1.38123
184.50 1.38119
185.00 1.38134
185.50 1.38185
186.00 1.38278
186.50 1.38383
187.00 1.38471
187.50 1.38567
188.00 1.38733
188.50 1.38985
189.00 1.39247
189.50 1.39418
190.00 1.39490
190.50 1.39573
191.00 1.39712
191.50 1.39861
192.00 1.39986
192.50 1.39852
193.00 1.39725
193.50 1.39597
194.00 1.39397
194.50 1.39191
195.00 1.38935
195.50 1.38693
196.00 1.38482
196.50 1.38281
197.00 1.38096
197.50 1.37931
198.00 1.37776
198.50 1.37629
199.00 1.37450
199.50 1.37136
200.00 1.36742
200.50 1.36581
201.00 1.36424
201.50 1.36272
202.00 1.35835
202.50 1.35063
203.00 1.34295
203.50 1.33627
204.00 1.33106
204.50 1.31829
205.00 1.30411
205.50 1.29172
206.00 1.27937
206.50 1.26705
207.00 1.25274
207.50 1.23742
208.00 1.22221
208.50 1.20786
209.00 1.19356
209.50 1.17970
210.00 1.16604
210.50 1.15244
211.00 1.13870
211.50 1.12442
212.00 1.10879
212.50 1.09529
213.00 1.08217
213.50 1.06908
214.00 1.05402
214.50 1.03740
215.00 1.02123
215.50 1.00573
216.00 0.98872
216.50 0.96970
217.00 0.95070
217.50 0.93121
218.00 0.91202
218.50 0.89288
219.00 0.87376
219.50 0.85412
220.00 0.83485
220.50 0.81609
221.00 0.79744
221.50 0.77889
222.00 0.76079
222.50 0.74310
223.00 0.72556
223.50 0.70869
224.00 0.69192
224.50 0.67605
225.00 0.66019
225.50 0.64558
226.00 0.63109
226.50 0.61833
227.00 0.60547
227.50 0.59458
228.00 0.58356
228.50 0.57488
229.00 0.56672
229.50 0.55716
230.00 0.54814
230.50 0.54318
231.00 0.53850
231.50 0.52950
232.00 0.51870
232.50 0.50785
233.00 0.50007
233.50 0.49309
234.00 0.48405
234.50 0.46896
235.00 0.45353
235.50 0.43796
236.00 0.42220
236.50 0.40616
237.00 0.38998
237.50 0.36907
238.00 0.34693
238.50 0.32461
239.00 0.29834
239.50 0.26972
240.00 0.24112
240.50 0.22072
241.00 0.20022
241.50 0.17963
242.00 0.15473
242.50 0.12977
243.00 0.11349
243.50 0.09732
244.00 0.08509
244.50 0.07293
245.00 0.06257
245.50 0.05487
246.00 0.04715
246.50 0.03941
247.00 0.03313
247.50 0.02940
248.00 0.02566
248.50 0.02186
249.00 0.01807
249.50 0.01591
250.00 0.01395
250.50 0.01193
251.00 0.00991
251.50 0.00854
252.00 0.00748
252.50 0.00641
253.00 0.00535
253.50 0.00461
254.00 0.00404
254.50 0.00350
255.00 0.00297
255.50 0.00251
256.00 0.00221
256.50 0.00191
257.00 0.00166
257.50 0.00144
258.00 0.00122
258.50 0.00109
259.00 0.00096
259.50 0.00083
260.00 0.00074
260.50 0.00064
261.00 0.00058
261.50 0.00052
262.00 0.00047
262.50 0.00041
263.00 0.00037
263.50 0.00034
264.00 0.00031
264.50 0.00027
265.00 0.00024
265.50 0.00021
266.00 0.00019
266.50 0.00016
267.00 0.00014
267.50 0.00011
268.00 0.00009
268.50 0.00007
269.00 0.00006
269.50 0.00005
270.00 0.00004
270.00 0.00004
270.50 0.00005
271.00 0.00006
271.50 0.00007
272.00 0.00009
272.50 0.00011
273.00 0.00014
273.50 0.00016
274.00 0.00019
274.50 0.00021
275.00 0.00024
275.50 0.00027
276.00 0.00031
276.50 0.00034
277.00 0.00037
277.50 0.00041
278.00 0.00047
278.50 0.00052
279.00 0.00058
279.50 0.00064
280.00 0.00074
280.50 0.00083
281.00 0.00096
281.50 0.00109
282.00 0.00122
282.50 0.00144
283.00 0.00166
283.50 0.00191
284.00 0.00221
284.50 0.00251
285.00 0.00297
285.50 0.00350
286.00 0.00404
286.50 0.00461
287.00 0.00535
287.50 0.00641
288.00 0.00748
288.50 0.00854
289.00 0.00991
289.50 0.01193
290.00 0.01395
290.50 0.01591
291.00 0.01807
291.50 0.02186
292.00 0.02566
292.50 0.02940
293.00 0.03313
293.50 0.03941
294.00 0.04715
294.50 0.05487
295.00 0.06257
295.50 0.07293
296.00 0.08509
296.50 0.09732
297.00 0.11349
297.50 0.12977
298.00 0.15473
298.50 0.17963
299.00 0.20022
299.50 0.22072
300.00 0.24112
300.50 0.26972
301.00 0.29834
301.50 0.32461
302.00 0.34693
302.50 0.36907
303.00 0.38998
303.50 0.40616
304.00 0.42220
304.50 0.43796
305.00 0.45353
305.50 0.46896
306.00 0.48405
306.50 0.49309
307.00 0.50007
307.50 0.50785
308.00 0.51870
308.50 0.52950
309.00 0.53850
309.50 0.54318
310.00 0.54814
310.50 0.55716
311.00 0.56672
311.50 0.57488
312.00 0.58356
312.50 0.59458
313.00 0.60547
313.50 0.61833
314.00 0.63109
314.50 0.64558
315.00 0.66019
315.50 0.67605
316.00 0.69192
316.50 0.70869
317.00 0.72556
317.50 0.74310
318.00 0.76079
318.50 0.77889
319.00 0.79744
319.50 0.81609
320.00 0.83485
320.50 0.85412
321.00 0.87376
321.50 0.89288
322.00 0.91202
322.50 0.93121
323.00 0.95070
323.50 0.96970
324.00 0.98872
324.50 1.00573
325.00 1.02123
325.50 1.03740
326.00 1.05402
326.50 1.06908
327.00 1.08217
327.50 1.09529
328.00 1.10879
328.50 1.12442
329.00 1.13870
329.50 1.15244
330.00 1.16604
330.50 1.17970
331.00 1.19356
331.50 1.20786
332.00 1.22221
332.50 1.23742
333.00 1.25274
333.50 1.26705
334.00 1.27937
334.50 1.29172
335.00 1.30411
335.50 1.31829
336.00 1.33106
336.50 1.33627
337.00 1.34295
337.50 1.35063
338.00 1.35835
338.50 1.36272
339.00 1.36424
339.50 1.36581
340.00 1.36742
340.50 1.37136
341.00 1.37450
341.50 1.37629
342.00 1.37776
342.50 1.37931
343.00 1.38096
343.50 1.38281
344.00 1.38482
344.50 1.38693
345.00 1.38935
345.50 1.39191
346.00 1.39397
346.50 1.39597
347.00 1.39725
347.50 1.39852
348.00 1.39986
348.50 1.39861
349.00 1.39712
349.50 1.39573
350.00 1.39490
350.50 1.39418
351.00 1.39247
351.50 1.38985
352.00 1.38733
352.50 1.38567
353.00 1.38471
353.50 1.38383
354.00 1.38278
354.50 1.38185
355.00 1.38134
355.50 1.38119
356.00 1.38123
356.50 1.38205
357.00 1.38274
357.50 1.38321
358.00 1.38379
358.50 1.38456
359.00 1.38510
359.50 1.38575
360.00 1.38649
