phi[deg] B[T]
0.00 1.42710
0.50 1.42662
1.00 1.42625
1.50 1.42599
2.00 1.42583
2.50 1.42576
3.00 1.42573
3.50 1.42580
4.00 1.42598
4.50 1.42627
5.00 1.42678
5.50 1.42745
6.00 1.42823
6.50 1.42859
7.00 1.42905
7.50 1.42961
8.00 1.43069
8.50 1.43188
9.00 1.43318
9.50 1.43353
10.00 1.43302
10.50 1.43270
11.00 1.43378
11.50 1.43494
12.00 1.43506
12.50 1.43414
13.00 1.43247
13.50 1.43038
14.00 1.42837
14.50 1.42642
15.00 1.42455
15.50 1.42275
16.00 1.42098
16.50 1.41917
17.00 1.41779
17.50 1.41426
18.00 1.41052
18.50 1.40684
19.00 1.40321
19.50 1.39962
20.00 1.39609
20.50 1.39330
21.00 1.39203
21.50 1.38706
22.00 1.37995
22.50 1.37285
23.00 1.36549
23.50 1.35816
24.00 1.35085
24.50 1.34190
25.00 1.33111
25.50 1.32036
26.00 1.30916
26.50 1.29672
27.00 1.28433
27.50 1.27231
28.00 1.26033
28.50 1.24825
29.00 1.23584
29.50 1.22342
30.00 1.20930
30.50 1.19519
31.00 1.18112
31.50 1.16707
32.00 1.15344
32.50 1.14108
33.00 1.12875
33.50 1.11310
34.00 1.09668
34.50 1.08026
35.00 1.06385
35.50 1.04707
36.00 1.03016
36.50 1.01302
37.00 0.99589
37.50 0.97860
38.00 0.96006
38.50 0.94153
39.00 0.92303
39.50 0.90459
40.00 0.88679
40.50 0.86906
41.00 0.85145
41.50 0.83395
42.00 0.81689
42.50 0.80072
43.00 0.78411
43.50 0.76745
44.00 0.75113
44.50 0.73506
45.00 0.71895
45.50 0.70312
46.00 0.68739
46.50 0.67165
47.00 0.65605
47.50 0.64043
48.00 0.62387
48.50 0.60825
49.00 0.59260
49.50 0.57754
50.00 0.56281
50.50 0.54708
51.00 0.52950
51.50 0.51250
52.00 0.49821
52.50 0.48386
53.00 0.46944
53.50 0.45379
54.00 0.43794
54.50 0.42202
55.00 0.40576
55.50 0.38778
56.00 0.36972
56.50 0.35188
57.00 0.33412
57.50 0.31628
58.00 0.29837
58.50 0.28039
59.00 0.26347
59.50 0.24645
60.00 0.22860
60.50 0.21069
61.00 0.19273
61.50 0.17472
62.00 0.16149
62.50 0.14966
63.00 0.13779
63.50 0.12590
64.00 0.11358
64.50 0.10053
65.00 0.08746
65.50 0.07731
66.00 0.07062
66.50 0.06392
67.00 0.05803
67.50 0.05239
68.00 0.04676
68.50 0.04113
69.00 0.03615
69.50 0.03284
70.00 0.02953
70.50 0.02622
71.00 0.02349
71.50 0.02125
72.00 0.01903
72.50 0.01680
73.00 0.01506
73.50 0.01359
74.00 0.01211
74.50 0.01064
75.00 0.00972
75.50 0.00886
76.00 0.00799
76.50 0.00713
77.00 0.00627
77.50 0.00556
78.00 0.00485
78.50 0.00443
79.00 0.00406
79.50 0.00370
80.00 0.00335
80.50 0.00300
81.00 0.00265
81.50 0.00231
82.00 0.00208
82.50 0.00190
83.00 0.00172
83.50 0.00154
84.00 0.00140
84.50 0.00125
85.00 0.00111
85.50 0.00104
86.00 0.00097
86.50 0.00090
87.00 0.00083
87.50 0.00077
88.00 0.00074
88.50 0.00071
89.00 0.00068
89.50 0.00065
90.00 0.00062
90.00 0.00062
90.50 0.00065
91.00 0.00068
91.50 0.00071
92.00 0.00074
92.50 0.00077
93.00 0.00083
93.50 0.00090
94.00 0.00097
94.50 0.00104
95.00 0.00111
95.50 0.00125
96.00 0.00140
96.50 0.00154
97.00 0.00172
97.50 0.00190
98.00 0.00208
98.50 0.00231
99.00 0.00265
99.50 0.00300
100.00 0.00335
100.50 0.00370
101.00 0.00406
101.50 0.00443
102.00 0.00485
102.50 0.00556
103.00 0.00627
103.50 0.00713
104.00 0.00799
104.50 0.00886
105.00 0.00972
105.50 0.01064
106.00 0.01211
106.50 0.01359
107.00 0.01506
107.50 0.01680
108.00 0.01903
108.50 0.02125
109.00 0.02349
109.50 0.02622
110.00 0.02953
110.50 0.03284
111.00 0.03615
111.50 0.04113
112.00 0.04676
112.50 0.05239
113.00 0.05803
113.50 0.06392
114.00 0.07062
114.50 0.07731
115.00 0.08746
115.50 0.10053
116.00 0.11358
116.50 0.12590
117.00 0.13779
117.50 0.14966
118.00 0.16149
118.50 0.17472
119.00 0.19273
119.50 0.21069
120.00 0.22860
120.50 0.24645
121.00 0.26347
121.50 0.28039
122.00 0.29837
122.50 0.31628
123.00 0.33412
123.50 0.35188
124.00 0.36972
124.50 0.38778
125.00 0.40576
125.50 0.42202
126.00 0.43794
126.50 0.45379
127.00 0.46944
127.50 0.48386
128.00 0.49821
128.50 0.51250
129.00 0.52950
129.50 0.54708
130.00 0.56281
130.50 0.57754
131.00 0.59260
131.50 0.60825
132.00 0.62387
132.50 0.64043
133.00 0.65605
133.50 0.67165
134.00 0.68739
134.50 0.70312
135.00 0.71895
135.50 0.73506
136.00 0.75113
136.50 0.76745
137.00 0.78411
137.50 0.80072
138.00 0.81689
138.50 0.83395
139.00 0.85145
139.50 0.86906
140.00 0.88679
140.50 0.90459
141.00 0.92303
141.50 0.94153
142.00 0.96006
142.50 0.97860
143.00 0.99589
143.50 1.01302
144.00 1.03016
144.50 1.04707
145.00 1.06385
145.50 1.08026
146.00 1.09668
146.50 1.11310
147.00 1.12875
147.50 1.14108
148.00 1.15344
148.50 1.16707
149.00 1.18112
149.50 1.19519
150.00 1.20930
150.50 1.22342
151.00 1.23584
151.50 1.24825
152.00 1.26033
152.50 1.27231
153.00 1.28433
153.50 1.29672
154.00 1.30916
154.50 1.32036
155.00 1.33111
155.50 1.34190
156.00 1.35085
156.50 1.35816
157.00 1.36549
157.50 1.37285
158.00 1.37995
158.50 1.38706
159.00 1.39203
159.50 1.39330
160.00 1.39609
160.50 1.39962
161.00 1.40321
161.50 1.40684
162.00 1.41052
162.50 1.41426
163.00 1.41779
163.50 1.41917
164.00 1.42098
164.50 1.42275
165.00 1.42455
165.50 1.42642
166.00 1.42837
166.50 1.43038
167.00 1.43247
167.50 1.43414
168.00 1.43506
168.50 1.43494
169.00 1.43378
169.50 1.43270
170.00 1.43302
170.50 1.43353
171.00 1.43318
171.50 1.43188
172.00 1.43069
172.50 1.42961
173.00 1.42905
173.50 1.42859
174.00 1.42823
174.50 1.42745
175.00 1.42678
175.50 1.42627
176.00 1.42598
176.50 1.42580
177.00 1.42573
177.50 1.42576
178.00 1.42583
178.50 1.42599
179.00 1.42625
179.50 1.42662
180.00 1.42710
180.00 1.42710
180.50 1.42662
181.00 1.42625
181.50 1.42599
182.00 1.42583
182.50 1.42576
183.00 1.42573
183.50 1.42580
184.00 1.42598
184.50 1.42627
185.00 1.42678
185.50 1.42745
186.00 1.42823
186.50 1.42859
187.00 1.42905
187.50 1.42961
188.00 1.43069
188.50 1.43188
189.00 1.43318
189.50 1.43353
190.00 1.43302
190.50 1.43270
191.00 1.43378
191.50 1.43494
192.00 1.43506
192.50 1.43414
193.00 1.43247
193.50 1.43038
194.00 1.42837
194.50 1.42642
195.00 1.42455
195.50 1.42275
196.00 1.42098
196.50 1.41917
197.00 1.41779
197.50 1.41426
198.00 1.41052
198.50 1.40684
199.00 1.40321
199.50 1.39962
200.00 1.39609
200.50 1.39330
201.00 1.39203
201.50 1.38706
202.00 1.37995
202.50 1.37285
203.00 1.36549
203.50 1.35816
204.00 1.35085
204.50 1.34190
205.00 1.33111
205.50 1.32036
206.00 1.30916
206.50 1.29672
207.00 1.28433
207.50 1.27231
208.00 1.26033
208.50 1.24825
209.00 1.23584
209.50 1.22342
210.00 1.20930
210.50 1.19519
211.00 1.18112
211.50 1.16707
212.00 1.15344
212.50 1.14108
213.00 1.12875
213.50 1.11310
214.00 1.09668
214.50 1.08026
215.00 1.06385
215.50 1.04707
216.00 1.03016
216.50 1.01302
217.00 0.99589
217.50 0.97860
218.00 0.96006
218.50 0.94153
219.00 0.92303
219.50 0.90459
220.00 0.88679
220.50 0.86906
221.00 0.85145
221.50 0.83395
222.00 0.81689
222.50 0.80072
223.00 0.78411
223.50 0.76745
224.00 0.75113
224.50 0.73506
225.00 0.71895
225.50 0.70312
226.00 0.68739
226.50 0.67165
227.00 0.65605
227.50 0.64043
228.00 0.62387
228.50 0.60825
229.00 0.59260
229.50 0.57754
230.00 0.56281
230.50 0.54708
231.00 0.52950
231.50 0.51250
232.00 0.49821
232.50 0.48386
233.00 0.46944
233.50 0.45379
234.00 0.43794
234.50 0.42202
235.00 0.40576
235.50 0.38778
236.00 0.36972
236.50 0.35188
237.00 0.33412
237.50 0.31628
238.00 0.29837
238.50 0.28039
239.00 0.26347
239.50 0.24645
240.00 0.22860
240.50 0.21069
241.00 0.19273
241.50 0.17472
242.00 0.16149
242.50 0.14966
243.00 0.13779
243.50 0.12590
244.00 0.11358
244.50 0.10053
245.00 0.08746
245.50 0.07731
246.00 0.07062
246.50 0.06392
247.00 0.05803
247.50 0.05239
248.00 0.04676
248.50 0.04113
249.00 0.03615
249.50 0.03284
250.00 0.02953
250.50 0.02622
251.00 0.02349
251.50 0.02125
252.00 0.01903
252.50 0.01680
253.00 0.01506
253.50 0.01359
254.00 0.01211
254.50 0.01064
255.00 0.00972
255.50 0.00886
256.00 0.00799
256.50 0.00713
257.00 0.00627
257.50 0.00556
258.00 0.00485
258.50 0.00443
259.00 0.00406
259.50 0.00370
260.00 0.00335
260.50 0.00300
261.00 0.00265
261.50 0.00231
262.00 0.00208
262.50 0.00190
263.00 0.00172
263.50 0.00154
264.00 0.00140
264.50 0.00125
265.00 0.00111
265.50 0.00104
266.00 0.00097
266.50 0.00090
267.00 0.00083
267.50 0.00077
268.00 0.00074
268.50 0.00071
269.00 0.00068
269.50 0.00065
270.00 0.00062
270.00 0.00062
270.50 0.00065
271.00 0.00068
271.50 0.00071
272.00 0.00074
272.50 0.00077
273.00 0.00083
273.50 0.00090
274.00 0.00097
274.50 0.00104
275.00 0.00111
275.50 0.00125
276.00 0.00140
276.50 0.00154
277.00 0.00172
277.50 0.00190
278.00 0.00208
278.50 0.00231
279.00 0.00265
279.50 0.00300
280.00 0.00335
280.50 0.00370
281.00 0.00406
281.50 0.00443
282.00 0.00485
282.50 0.00556
283.00 0.00627
283.50 0.00713
284.00 0.00799
284.50 0.00886
285.00 0.00972
285.50 0.01064
286.00 0.01211
286.50 0.01359
287.00 0.01506
287.50 0.01680
288.00 0.01903
288.50 0.02125
289.00 0.02349
289.50 0.02622
290.00 0.02953
290.50 0.03284
291.00 0.03615
291.50 0.04113
292.00 0.04676
292.50 0.05239
293.00 0.05803
293.50 0.06392
294.00 0.07062
294.50 0.07731
295.00 0.08746
295.50 0.10053
296.00 0.11358
296.50 0.12590
297.00 0.13779
297.50 0.14966
298.00 0.16149
298.50 0.17472
299.00 0.19273
299.50 0.21069
300.00 0.22860
300.50 0.24645
301.00 0.26347
301.50 0.28039
302.00 0.29837
302.50 0.31628
303.00 0.33412
303.50 0.35188
304.00 0.36972
304.50 0.38778
305.00 0.40576
305.50 0.42202
306.00 0.43794
306.50 0.45379
307.00 0.46944
307.50 0.48386
308.00 0.49821
308.50 0.51250
309.00 0.52950
309.50 0.54708
310.00 0.56281
310.50 0.57754
311.00 0.59260
311.50 0.60825
312.00 0.62387
312.50 0.64043
313.00 0.65605
313.50 0.67165
314.00 0.68739
314.50 0.70312
315.00 0.71895
315.50 0.73506
316.00 0.75113
316.50 0.76745
317.00 0.78411
317.50 0.80072
318.00 0.81689
318.50 0.83395
319.00 0.85145
319.50 0.86906
320.00 0.88679
320.50 0.90459
321.00 0.92303
321.50 0.94153
322.00 0.96006
322.50 0.97860
323.00 0.99589
323.50 1.01302
324.00 1.03016
324.50 1.04707
325.00 1.06385
325.50 1.08026
326.00 1.09668
326.50 1.11310
327.00 1.12875
327.50 1.14108
328.00 1.15344
328.50 1.16707
329.00 1.18112
329.50 1.19519
330.00 1.20930
330.50 1.22342
331.00 1.23584
331.50 1.24825
332.00 1.26033
332.50 1.27231
333.00 1.28433
333.50 1.29672
334.00 1.30916
334.50 1.32036
335.00 1.33111
335.50 1.34190
336.00 1.35085
336.50 1.35816
337.00 1.36549
337.50 1.37285
338.00 1.37995
338.50 1.38706
339.00 1.39203
339.50 1.39330
340.00 1.39609
340.50 1.39962
341.00 1.40321
341.50 1.40684
342.00 1.41052
342.50 1.41426
343.00 1.41779
343.50 1.41917
344.00 1.42098
344.50 1.42275
345.00 1.42455
345.50 1.42642
346.00 1.42837
346.50 1.43038
347.00 1.43247
347.50 1.43414
348.00 1.43506
348.50 1.43494
349.00 1.43378
349.50 1.43270
350.00 1.43302
350.50 1.43353
351.00 1.43318
351.50 1.43188
352.00 1.43069
352.50 1.42961
353.00 1.42905
353.50 1.42859
354.00 1.42823
354.50 1.42745
355.00 1.42678
355.50 1.42627
356.00 1.42598
356.50 1.42580
357.00 1.42573
357.50 1.42576
358.00 1.42583
358.50 1.42599
359.00 1.42625
359.50 1.42662
360.00 1.42710
