phi[deg] B[T]
0.00 1.70839
0.50 1.70776
1.00 1.70727
1.50 1.70690
2.00 1.70662
2.50 1.70630
3.00 1.70611
3.50 1.70606
4.00 1.70616
4.50 1.70650
5.00 1.70697
5.50 1.70786
6.00 1.70908
6.50 1.71043
7.00 1.71150
7.50 1.71257
8.00 1.71378
8.50 1.71512
9.00 1.71783
9.50 1.72083
10.00 1.72288
10.50 1.72404
11.00 1.72455
11.50 1.72516
12.00 1.72586
12.50 1.72491
13.00 1.72333
13.50 1.72176
14.00 1.71965
14.50 1.71765
15.00 1.71574
15.50 1.71329
16.00 1.71082
16.50 1.70826
17.00 1.70469
17.50 1.70121
18.00 1.69784
18.50 1.69504
19.00 1.69369
19.50 1.69204
20.00 1.69013
20.50 1.68455
21.00 1.67901
21.50 1.67351
22.00 1.66792
22.50 1.66097
23.00 1.65407
23.50 1.64430
24.00 1.63195
24.50 1.61961
25.00 1.60729
25.50 1.59013
26.00 1.57291
26.50 1.55564
27.00 1.53816
27.50 1.52074
28.00 1.50336
28.50 1.48555
29.00 1.46723
29.50 1.45005
30.00 1.43263
30.50 1.41455
31.00 1.39653
31.50 1.37856
32.00 1.36090
32.50 1.34504
33.00 1.32922
33.50 1.31071
34.00 1.29112
34.50 1.27158
35.00 1.25208
35.50 1.23346
36.00 1.21641
36.50 1.19661
37.00 1.17550
37.50 1.15444
38.00 1.13340
38.50 1.11239
39.00 1.09141
39.50 1.07044
40.00 1.04902
40.50 1.02764
41.00 1.00610
41.50 0.98493
42.00 0.96394
42.50 0.94293
43.00 0.92182
43.50 0.90124
44.00 0.88061
44.50 0.85991
45.00 0.83929
45.50 0.81943
46.00 0.79959
46.50 0.78049
47.00 0.76186
47.50 0.74335
48.00 0.72618
48.50 0.70895
49.00 0.69291
49.50 0.67676
50.00 0.66061
50.50 0.64889
51.00 0.63792
51.50 0.62178
52.00 0.60367
52.50 0.58551
53.00 0.56749
53.50 0.55636
54.00 0.54512
54.50 0.53022
55.00 0.51358
55.50 0.49652
56.00 0.47443
56.50 0.45220
57.00 0.42980
57.50 0.40429
58.00 0.37855
58.50 0.35267
59.00 0.32739
59.50 0.30268
60.00 0.27702
60.50 0.25097
61.00 0.22481
61.50 0.19854
62.00 0.17618
62.50 0.15871
63.00 0.14083
63.50 0.12293
64.00 0.10501
64.50 0.09179
65.00 0.08172
65.50 0.07164
66.00 0.06168
66.50 0.05209
67.00 0.04649
67.50 0.04115
68.00 0.03579
68.50 0.03044
69.00 0.02612
69.50 0.02315
70.00 0.02018
70.50 0.01743
71.00 0.01479
71.50 0.01294
72.00 0.01154
72.50 0.01017
73.00 0.00882
73.50 0.00747
74.00 0.00638
74.50 0.00568
75.00 0.00499
75.50 0.00431
76.00 0.00377
76.50 0.00324
77.00 0.00282
77.50 0.00252
78.00 0.00221
78.50 0.00191
79.00 0.00166
79.50 0.00143
80.00 0.00128
80.50 0.00115
81.00 0.00102
81.50 0.00089
82.00 0.00077
82.50 0.00069
83.00 0.00062
83.50 0.00056
84.00 0.00049
84.50 0.00042
85.00 0.00038
85.50 0.00034
86.00 0.00030
86.50 0.00026
87.00 0.00024
87.50 0.00021
88.00 0.00019
88.50 0.00017
89.00 0.00016
89.50 0.00015
90.00 0.00014
90.00 0.00014
90.50 0.00015
91.00 0.00016
91.50 0.00017
92.00 0.00019
92.50 0.00021
93.00 0.00024
93.50 0.00026
94.00 0.00030
94.50 0.00034
95.00 0.00038
95.50 0.00042
96.00 0.00049
96.50 0.00056
97.00 0.00062
97.50 0.00069
98.00 0.00077
98.50 0.00089
99.00 0.00102
99.50 0.00115
100.00 0.00128
100.50 0.00143
101.00 0.00166
101.50 0.00191
102.00 0.00221
102.50 0.00252
103.00 0.00282
103.50 0.00324
104.00 0.00377
104.50 0.00431
105.00 0.00499
105.50 0.00568
106.00 0.00638
106.50 0.00747
107.00 0.00882
107.50 0.01017
108.00 0.01154
108.50 0.01294
109.00 0.01479
109.50 0.01743
110.00 0.02018
110.50 0.02315
111.00 0.02612
111.50 0.03044
112.00 0.03579
112.50 0.04115
113.00 0.04649
113.50 0.05209
114.00 0.06168
114.50 0.07164
115.00 0.08172
115.50 0.09179
116.00 0.10501
116.50 0.12293
117.00 0.14083
117.50 0.15871
118.00 0.17618
118.50 0.19854
119.00 0.22481
119.50 0.25097
120.00 0.27702
120.50 0.30268
121.00 0.32739
121.50 0.35267
122.00 0.37855
122.50 0.40429
123.00 0.42980
123.50 0.45220
124.00 0.47443
124.50 0.49652
125.00 0.51358
125.50 0.53022
126.00 0.54512
126.50 0.55636
127.00 0.56749
127.50 0.58551
128.00 0.60367
128.50 0.62178
129.00 0.63792
129.50 0.64889
130.00 0.66061
130.50 0.67676
131.00 0.69291
131.50 0.70895
132.00 0.72618
132.50 0.74335
133.00 0.76186
133.50 0.78049
134.00 0.79959
134.50 0.81943
135.00 0.83929
135.50 0.85991
136.00 0.88061
136.50 0.90124
137.00 0.92182
137.50 0.94293
138.00 0.96394
138.50 0.98493
139.00 1.00610
139.50 1.02764
140.00 1.04902
140.50 1.07044
141.00 1.09141
141.50 1.11239
142.00 1.13340
142.50 1.15444
143.00 1.17550
143.50 1.19661
144.00 1.21641
144.50 1.23346
145.00 1.25208
145.50 1.27158
146.00 1.29112
146.50 1.31071
147.00 1.32922
147.50 1.34504
148.00 1.36090
148.50 1.37856
149.00 1.39653
149.50 1.41455
150.00 1.43263
150.50 1.45005
151.00 1.46723
151.50 1.48555
152.00 1.50336
152.50 1.52074
153.00 1.53816
153.50 1.55564
154.00 1.57291
154.50 1.59013
155.00 1.60729
155.50 1.61961
156.00 1.63195
156.50 1.64430
157.00 1.65407
157.50 1.66097
158.00 1.66792
158.50 1.67351
159.00 1.67901
159.50 1.68455
160.00 1.69013
160.50 1.69204
161.00 1.69369
161.50 1.69504
162.00 1.69784
162.50 1.70121
163.00 1.70469
163.50 1.70826
164.00 1.71082
164.50 1.71329
165.00 1.71574
165.50 1.71765
166.00 1.71965
166.50 1.72176
167.00 1.72333
167.50 1.72491
168.00 1.72586
168.50 1.72516
169.00 1.72455
169.50 1.72404
170.00 1.72288
170.50 1.72083
171.00 1.71783
171.50 1.71512
172.00 1.71378
172.50 1.71257
173.00 1.71150
173.50 1.71043
174.00 1.70908
174.50 1.70786
175.00 1.70697
175.50 1.70650
176.00 1.70616
176.50 1.70606
177.00 1.70611
177.50 1.70630
178.00 1.70662
178.50 1.70690
179.00 1.70727
179.50 1.70776
180.00 1.70839
180.00 1.70839
180.50 1.70776
181.00 1.70727
181.50 1.70690
182.00 1.70662
182.50 1.70630
183.00 1.70611
183.50 1.70606
184.00 1.70616
184.50 1.70650
185.00 1.70697
185.50 1.70786
186.00 1.70908
186.50 1.71043
187.00 1.71150
187.50 1.71257
188.00 1.71378
188.50 1.71512
189.00 1.71783
189.50 1.72083
190.00 1.72288
190.50 1.72404
191.00 1.72455
191.50 1.72516
192.00 1.72586
192.50 1.72491
193.00 1.72333
193.50 1.72176
194.00 1.71965
194.50 1.71765
195.00 1.71574
195.50 1.71329
196.00 1.71082
196.50 1.70826
197.00 1.70469
197.50 1.70121
198.00 1.69784
198.50 1.69504
199.00 1.69369
199.50 1.69204
200.00 1.69013
200.50 1.68455
201.00 1.67901
201.50 1.67351
202.00 1.66792
202.50 1.66097
203.00 1.65407
203.50 1.64430
204.00 1.63195
204.50 1.61961
205.00 1.60729
205.50 1.59013
206.00 1.57291
206.50 1.55564
207.00 1.53816
207.50 1.52074
208.00 1.50336
208.50 1.48555
209.00 1.46723
209.50 1.45005
210.00 1.43263
210.50 1.41455
211.00 1.39653
211.50 1.37856
212.00 1.36090
212.50 1.34504
213.00 1.32922
213.50 1.31071
214.00 1.29112
214.50 1.27158
215.00 1.25208
215.50 1.23346
216.00 1.21641
216.50 1.19661
217.00 1.17550
217.50 1.15444
218.00 1.13340
218.50 1.11239
219.00 1.09141
219.50 1.07044
220.00 1.04902
220.50 1.02764
221.00 1.00610
221.50 0.98493
222.00 0.96394
222.50 0.94293
223.00 0.92182
223.50 0.90124
224.00 0.88061
224.50 0.85991
225.00 0.83929
225.50 0.81943
226.00 0.79959
226.50 0.78049
227.00 0.76186
227.50 0.74335
228.00 0.72618
228.50 0.70895
229.00 0.69291
229.50 0.67676
230.00 0.66061
230.50 0.64889
231.00 0.63792
231.50 0.62178
232.00 0.60367
232.50 0.58551
233.00 0.56749
233.50 0.55636
234.00 0.54512
234.50 0.53022
235.00 0.51358
235.50 0.49652
236.00 0.47443
236.50 0.45220
237.00 0.42980
237.50 0.40429
238.00 0.37855
238.50 0.35267
239.00 0.32739
239.50 0.30268
240.00 0.27702
240.50 0.25097
241.00 0.22481
241.50 0.19854
242.00 0.17618
242.50 0.15871
243.00 0.14083
243.50 0.12293
244.00 0.10501
244.50 0.09179
245.00 0.08172
245.50 0.07164
246.00 0.06168
246.50 0.05209
247.00 0.04649
247.50 0.04115
248.00 0.03579
248.50 0.03044
249.00 0.02612
249.50 0.02315
250.00 0.02018
250.50 0.01743
251.00 0.01479
251.50 0.01294
252.00 0.01154
252.50 0.01017
253.00 0.00882
253.50 0.00747
254.00 0.00638
254.50 0.00568
255.00 0.00499
255.50 0.00431
256.00 0.00377
256.50 0.00324
257.00 0.00282
257.50 0.00252
258.00 0.00221
258.50 0.00191
259.00 0.00166
259.50 0.00143
260.00 0.00128
260.50 0.00115
261.00 0.00102
261.50 0.00089
262.00 0.00077
262.50 0.00069
263.00 0.00062
263.50 0.00056
264.00 0.00049
264.50 0.00042
265.00 0.00038
265.50 0.00034
266.00 0.00030
266.50 0.00026
267.00 0.00024
267.50 0.00021
268.00 0.00019
268.50 0.00017
269.00 0.00016
269.50 0.00015
270.00 0.00014
270.00 0.00014
270.50 0.00015
271.00 0.00016
271.50 0.00017
272.00 0.00019
272.50 0.00021
273.00 0.00024
273.50 0.00026
274.00 0.00030
274.50 0.00034
275.00 0.00038
275.50 0.00042
276.00 0.00049
276.50 0.00056
277.00 0.00062
277.50 0.00069
278.00 0.00077
278.50 0.00089
279.00 0.00102
279.50 0.00115
280.00 0.00128
280.50 0.00143
281.00 0.00166
281.50 0.00191
282.00 0.00221
282.50 0.00252
283.00 0.00282
283.50 0.00324
284.00 0.00377
284.50 0.00431
285.00 0.00499
285.50 0.00568
286.00 0.00638
286.50 0.00747
287.00 0.00882
287.50 0.01017
288.00 0.01154
288.50 0.01294
289.00 0.01479
289.50 0.01743
290.00 0.02018
290.50 0.02315
291.00 0.02612
291.50 0.03044
292.00 0.03579
292.50 0.04115
293.00 0.04649
293.50 0.05209
294.00 0.06168
294.50 0.07164
295.00 0.08172
295.50 0.09179
296.00 0.10501
296.50 0.12293
297.00 0.14083
297.50 0.15871
298.00 0.17618
298.50 0.19854
299.00 0.22481
299.50 0.25097
300.00 0.27702
300.50 0.30268
301.00 0.32739
301.50 0.35267
302.00 0.37855
302.50 0.40429
303.00 0.42980
303.50 0.45220
304.00 0.47443
304.50 0.49652
305.00 0.51358
305.50 0.53022
306.00 0.54512
306.50 0.55636
307.00 0.56749
307.50 0.58551
308.00 0.60367
308.50 0.62178
309.00 0.63792
309.50 0.64889
310.00 0.66061
310.50 0.67676
311.00 0.69291
311.50 0.70895
312.00 0.72618
312.50 0.74335
313.00 0.76186
313.50 0.78049
314.00 0.79959
314.50 0.81943
315.00 0.83929
315.50 0.85991
316.00 0.88061
316.50 0.90124
317.00 0.92182
317.50 0.94293
318.00 0.96394
318.50 0.98493
319.00 1.00610
319.50 1.02764
320.00 1.04902
320.50 1.07044
321.00 1.09141
321.50 1.11239
322.00 1.13340
322.50 1.15444
323.00 1.17550
323.50 1.19661
324.00 1.21641
324.50 1.23346
325.00 1.25208
325.50 1.27158
326.00 1.29112
326.50 1.31071
327.00 1.32922
327.50 1.34504
328.00 1.36090
328.50 1.37856
329.00 1.39653
329.50 1.41455
330.00 1.43263
330.50 1.45005
331.00 1.46723
331.50 1.48555
332.00 1.50336
332.50 1.52074
333.00 1.53816
333.50 1.55564
334.00 1.57291
334.50 1.59013
335.00 1.60729
335.50 1.61961
336.00 1.63195
336.50 1.64430
337.00 1.65407
337.50 1.66097
338.00 1.66792
338.50 1.67351
339.00 1.67901
339.50 1.68455
340.00 1.69013
340.50 1.69204
341.00 1.69369
341.50 1.69504
342.00 1.69784
342.50 1.70121
343.00 1.70469
343.50 1.70826
344.00 1.71082
344.50 1.71329
345.00 1.71574
345.50 1.71765
346.00 1.71965
346.50 1.72176
347.00 1.72333
347.50 1.72491
348.00 1.72586
348.50 1.72516
349.00 1.72455
349.50 1.72404
350.00 1.72288
350.50 1.72083
351.00 1.71783
351.50 1.71512
352.00 1.71378
352.50 1.71257
353.00 1.71150
353.50 1.71043
354.00 1.70908
354.50 1.70786
355.00 1.70697
355.50 1.70650
356.00 1.70616
356.50 1.70606
357.00 1.70611
357.50 1.70630
358.00 1.70662
358.50 1.70690
359.00 1.70727
359.50 1.70776
360.00 1.70839
