phi[deg] B[T]
0.00 1.99369
0.50 1.99357
1.00 1.99360
1.50 1.99378
2.00 1.99412
2.50 1.99468
3.00 1.99478
3.50 1.99571
4.00 1.99678
4.50 1.99799
5.00 1.99933
5.50 2.00082
6.00 2.00247
6.50 2.00426
7.00 2.00618
7.50 2.00671
8.00 2.00722
8.50 2.00815
9.00 2.00956
9.50 2.01109
10.00 2.01275
10.50 2.01198
11.00 2.01046
11.50 2.00946
12.00 2.00880
12.50 2.00825
13.00 2.00782
13.50 2.00728
14.00 2.00554
14.50 2.00296
15.00 1.99792
15.50 1.99350
16.00 1.99060
16.50 1.98779
17.00 1.98505
17.50 1.98141
18.00 1.97483
18.50 1.96831
19.00 1.96209
19.50 1.95785
20.00 1.95366
20.50 1.94796
21.00 1.93989
21.50 1.93188
22.00 1.92285
22.50 1.91254
23.00 1.90225
23.50 1.89201
24.00 1.87911
24.50 1.86563
25.00 1.85219
25.50 1.83865
26.00 1.82261
26.50 1.80710
27.00 1.79179
27.50 1.77651
28.00 1.76030
28.50 1.74291
29.00 1.72541
29.50 1.70713
30.00 1.68887
30.50 1.67064
31.00 1.65048
31.50 1.62928
32.00 1.61036
32.50 1.59144
33.00 1.57253
33.50 1.55230
34.00 1.53033
34.50 1.50836
35.00 1.48566
35.50 1.46216
36.00 1.43868
36.50 1.41520
37.00 1.39132
37.50 1.36649
38.00 1.34229
38.50 1.31810
39.00 1.29391
39.50 1.26944
40.00 1.24456
40.50 1.22076
41.00 1.19697
41.50 1.17315
42.00 1.14859
42.50 1.12509
43.00 1.10232
43.50 1.07955
44.00 1.05680
44.50 1.03405
45.00 1.01106
45.50 0.98875
46.00 0.96702
46.50 0.94526
47.00 0.92419
47.50 0.90368
48.00 0.88194
48.50 0.85928
49.00 0.83873
49.50 0.81847
50.00 0.79781
50.50 0.77578
51.00 0.75584
51.50 0.73583
52.00 0.71577
52.50 0.69551
53.00 0.67191
53.50 0.65000
54.00 0.62880
54.50 0.60753
55.00 0.58618
55.50 0.56449
56.00 0.54054
56.50 0.51870
57.00 0.49675
57.50 0.47472
58.00 0.45265
58.50 0.43142
59.00 0.41010
59.50 0.38625
60.00 0.36233
60.50 0.33833
61.00 0.31427
61.50 0.29066
62.00 0.27306
62.50 0.25565
63.00 0.23819
63.50 0.22066
64.00 0.20307
64.50 0.18455
65.00 0.17241
65.50 0.16049
66.00 0.14857
66.50 0.13658
67.00 0.12447
67.50 0.11235
68.00 0.10270
68.50 0.09601
69.00 0.08932
69.50 0.08261
70.00 0.07579
70.50 0.06895
71.00 0.06212
71.50 0.05569
72.00 0.05171
72.50 0.04800
73.00 0.04429
73.50 0.04058
74.00 0.03688
74.50 0.03318
75.00 0.03053
75.50 0.02848
76.00 0.02644
76.50 0.02439
77.00 0.02235
77.50 0.02023
78.00 0.01811
78.50 0.01674
79.00 0.01565
79.50 0.01456
80.00 0.01346
80.50 0.01237
81.00 0.01128
81.50 0.01021
82.00 0.00945
82.50 0.00882
83.00 0.00823
83.50 0.00764
84.00 0.00705
84.50 0.00652
85.00 0.00621
85.50 0.00589
86.00 0.00558
86.50 0.00526
87.00 0.00493
87.50 0.00482
88.00 0.00469
88.50 0.00456
89.00 0.00443
89.50 0.00430
90.00 0.00417
90.00 0.00417
90.50 0.00430
91.00 0.00443
91.50 0.00456
92.00 0.00469
92.50 0.00482
93.00 0.00493
93.50 0.00526
94.00 0.00558
94.50 0.00589
95.00 0.00621
95.50 0.00652
96.00 0.00705
96.50 0.00764
97.00 0.00823
97.50 0.00882
98.00 0.00945
98.50 0.01021
99.00 0.01128
99.50 0.01237
100.00 0.01346
100.50 0.01456
101.00 0.01565
101.50 0.01674
102.00 0.01811
102.50 0.02023
103.00 0.02235
103.50 0.02439
104.00 0.02644
104.50 0.02848
105.00 0.03053
105.50 0.03318
106.00 0.03688
106.50 0.04058
107.00 0.04429
107.50 0.04800
108.00 0.05171
108.50 0.05569
109.00 0.06212
109.50 0.06895
110.00 0.07579
110.50 0.08261
111.00 0.08932
111.50 0.09601
112.00 0.10270
112.50 0.11235
113.00 0.12447
113.50 0.13658
114.00 0.14857
114.50 0.16049
115.00 0.17241
115.50 0.18455
116.00 0.20307
116.50 0.22066
117.00 0.23819
117.50 0.25565
118.00 0.27306
118.50 0.29066
119.00 0.31427
119.50 0.33833
120.00 0.36233
120.50 0.38625
121.00 0.41010
121.50 0.43142
122.00 0.45265
122.50 0.47472
123.00 0.49675
123.50 0.51870
124.00 0.54054
124.50 0.56449
125.00 0.58618
125.50 0.60753
126.00 0.62880
126.50 0.65000
127.00 0.67191
127.50 0.69551
128.00 0.71577
128.50 0.73583
129.00 0.75584
129.50 0.77578
130.00 0.79781
130.50 0.81847
131.00 0.83873
131.50 0.85928
132.00 0.88194
132.50 0.90368
133.00 0.92419
133.50 0.94526
134.00 0.96702
134.50 0.98875
135.00 1.01106
135.50 1.03405
136.00 1.05680
136.50 1.07955
137.00 1.10232
137.50 1.12509
138.00 1.14859
138.50 1.17315
139.00 1.19697
139.50 1.22076
140.00 1.24456
140.50 1.26944
141.00 1.29391
141.50 1.31810
142.00 1.34229
142.50 1.36649
143.00 1.39132
143.50 1.41520
144.00 1.43868
144.50 1.46216
145.00 1.48566
145.50 1.50836
146.00 1.53033
146.50 1.55230
147.00 1.57253
147.50 1.59144
148.00 1.61036
148.50 1.62928
149.00 1.65048
149.50 1.67064
150.00 1.68887
150.50 1.70713
151.00 1.72541
151.50 1.74291
152.00 1.76030
152.50 1.77651
153.00 1.79179
153.50 1.80710
154.00 1.82261
154.50 1.83865
155.00 1.85219
155.50 1.86563
156.00 1.87911
156.50 1.89201
157.00 1.90225
157.50 1.91254
158.00 1.92285
158.50 1.93188
159.00 1.93989
159.50 1.94796
160.00 1.95366
160.50 1.95785
161.00 1.96209
161.50 1.96831
162.00 1.97483
162.50 1.98141
163.00 1.98505
163.50 1.98779
164.00 1.99060
164.50 1.99350
165.00 1.99792
165.50 2.00296
166.00 2.00554
166.50 2.00728
167.00 2.00782
167.50 2.00825
168.00 2.00880
168.50 2.00946
169.00 2.01046
169.50 2.01198
170.00 2.01275
170.50 2.01109
171.00 2.00956
171.50 2.00815
172.00 2.00722
172.50 2.00671
173.00 2.00618
173.50 2.00426
174.00 2.00247
174.50 2.00082
175.00 1.99933
175.50 1.99799
176.00 1.99678
176.50 1.99571
177.00 1.99478
177.50 1.99468
178.00 1.99412
178.50 1.99378
179.00 1.99360
179.50 1.99357
180.00 1.99369
180.00 1.99369
180.50 1.99357
181.00 1.99360
181.50 1.99378
182.00 1.99412
182.50 1.99468
183.00 1.99478
183.50 1.99571
184.00 1.99678
184.50 1.99799
185.00 1.99933
185.50 2.00082
186.00 2.00247
186.50 2.00426
187.00 2.00618
187.50 2.00671
188.00 2.00722
188.50 2.00815
189.00 2.00956
189.50 2.01109
190.00 2.01275
190.50 2.01198
191.00 2.01046
191.50 2.00946
192.00 2.00880
192.50 2.00825
193.00 2.00782
193.50 2.00728
194.00 2.00554
194.50 2.00296
195.00 1.99792
195.50 1.99350
196.00 1.99060
196.50 1.98779
197.00 1.98505
197.50 1.98141
198.00 1.97483
198.50 1.96831
199.00 1.96209
199.50 1.95785
200.00 1.95366
200.50 1.94796
201.00 1.93989
201.50 1.93188
202.00 1.92285
202.50 1.91254
203.00 1.90225
203.50 1.89201
204.00 1.87911
204.50 1.86563
205.00 1.85219
205.50 1.83865
206.00 1.82261
206.50 1.80710
207.00 1.79179
207.50 1.77651
208.00 1.76030
208.50 1.74291
209.00 1.72541
209.50 1.70713
210.00 1.68887
210.50 1.67064
211.00 1.65048
211.50 1.62928
212.00 1.61036
212.50 1.59144
213.00 1.57253
213.50 1.55230
214.00 1.53033
214.50 1.50836
215.00 1.48566
215.50 1.46216
216.00 1.43868
216.50 1.41520
217.00 1.39132
217.50 1.36649
218.00 1.34229
218.50 1.31810
219.00 1.29391
219.50 1.26944
220.00 1.24456
220.50 1.22076
221.00 1.19697
221.50 1.17315
222.00 1.14859
222.50 1.12509
223.00 1.10232
223.50 1.07955
224.00 1.05680
224.50 1.03405
225.00 1.01106
225.50 0.98875
226.00 0.96702
226.50 0.94526
227.00 0.92419
227.50 0.90368
228.00 0.88194
228.50 0.85928
229.00 0.83873
229.50 0.81847
230.00 0.79781
230.50 0.77578
231.00 0.75584
231.50 0.73583
232.00 0.71577
232.50 0.69551
233.00 0.67191
233.50 0.65000
234.00 0.62880
234.50 0.60753
235.00 0.58618
235.50 0.56449
236.00 0.54054
236.50 0.51870
237.00 0.49675
237.50 0.47472
238.00 0.45265
238.50 0.43142
239.00 0.41010
239.50 0.38625
240.00 0.36233
240.50 0.33833
241.00 0.31427
241.50 0.29066
242.00 0.27306
242.50 0.25565
243.00 0.23819
243.50 0.22066
244.00 0.20307
244.50 0.18455
245.00 0.17241
245.50 0.16049
246.00 0.14857
246.50 0.13658
247.00 0.12447
247.50 0.11235
248.00 0.10270
248.50 0.09601
249.00 0.08932
249.50 0.08261
250.00 0.07579
250.50 0.06895
251.00 0.06212
251.50 0.05569
252.00 0.05171
252.50 0.04800
253.00 0.04429
253.50 0.04058
254.00 0.03688
254.50 0.03318
255.00 0.03053
255.50 0.02848
256.00 0.02644
256.50 0.02439
257.00 0.02235
257.50 0.02023
258.00 0.01811
258.50 0.01674
259.00 0.01565
259.50 0.01456
260.00 0.01346
260.50 0.01237
261.00 0.01128
261.50 0.01021
262.00 0.00945
262.50 0.00882
263.00 0.00823
263.50 0.00764
264.00 0.00705
264.50 0.00652
265.00 0.00621
265.50 0.00589
266.00 0.00558
266.50 0.00526
267.00 0.00493
267.50 0.00482
268.00 0.00469
268.50 0.00456
269.00 0.00443
269.50 0.00430
270.00 0.00417
270.00 0.00417
270.50 0.00430
271.00 0.00443
271.50 0.00456
272.00 0.00469
272.50 0.00482
273.00 0.00493
273.50 0.00526
274.00 0.00558
274.50 0.00589
275.00 0.00621
275.50 0.00652
276.00 0.00705
276.50 0.00764
277.00 0.00823
277.50 0.00882
278.00 0.00945
278.50 0.01021
279.00 0.01128
279.50 0.01237
280.00 0.01346
280.50 0.01456
281.00 0.01565
281.50 0.01674
282.00 0.01811
282.50 0.02023
283.00 0.02235
283.50 0.02439
284.00 0.02644
284.50 0.02848
285.00 0.03053
285.50 0.03318
286.00 0.03688
286.50 0.04058
287.00 0.04429
287.50 0.04800
288.00 0.05171
288.50 0.05569
289.00 0.06212
289.50 0.06895
290.00 0.07579
290.50 0.08261
291.00 0.08932
291.50 0.09601
292.00 0.10270
292.50 0.11235
293.00 0.12447
293.50 0.13658
294.00 0.14857
294.50 0.16049
295.00 0.17241
295.50 0.18455
296.00 0.20307
296.50 0.22066
297.00 0.23819
297.50 0.25565
298.00 0.27306
298.50 0.29066
299.00 0.31427
299.50 0.33833
300.00 0.36233
300.50 0.38625
301.00 0.41010
301.50 0.43142
302.00 0.45265
302.50 0.47472
303.00 0.49675
303.50 0.51870
304.00 0.54054
304.50 0.56449
305.00 0.58618
305.50 0.60753
306.00 0.62880
306.50 0.65000
307.00 0.67191
307.50 0.69551
308.00 0.71577
308.50 0.73583
309.00 0.75584
309.50 0.77578
310.00 0.79781
310.50 0.81847
311.00 0.83873
311.50 0.85928
312.00 0.88194
312.50 0.90368
313.00 0.92419
313.50 0.94526
314.00 0.96702
314.50 0.98875
315.00 1.01106
315.50 1.03405
316.00 1.05680
316.50 1.07955
317.00 1.10232
317.50 1.12509
318.00 1.14859
318.50 1.17315
319.00 1.19697
319.50 1.22076
320.00 1.24456
320.50 1.26944
321.00 1.29391
321.50 1.31810
322.00 1.34229
322.50 1.36649
323.00 1.39132
323.50 1.41520
324.00 1.43868
324.50 1.46216
325.00 1.48566
325.50 1.50836
326.00 1.53033
326.50 1.55230
327.00 1.57253
327.50 1.59144
328.00 1.61036
328.50 1.62928
329.00 1.65048
329.50 1.67064
330.00 1.68887
330.50 1.70713
331.00 1.72541
331.50 1.74291
332.00 1.76030
332.50 1.77651
333.00 1.79179
333.50 1.80710
334.00 1.82261
334.50 1.83865
335.00 1.85219
335.50 1.86563
336.00 1.87911
336.50 1.89201
337.00 1.90225
337.50 1.91254
338.00 1.92285
338.50 1.93188
339.00 1.93989
339.50 1.94796
340.00 1.95366
340.50 1.95785
341.00 1.96209
341.50 1.96831
342.00 1.97483
342.50 1.98141
343.00 1.98505
343.50 1.98779
344.00 1.99060
344.50 1.99350
345.00 1.99792
345.50 2.00296
346.00 2.00554
346.50 2.00728
347.00 2.00782
347.50 2.00825
348.00 2.00880
348.50 2.00946
349.00 2.01046
349.50 2.01198
350.00 2.01275
350.50 2.01109
351.00 2.00956
351.50 2.00815
352.00 2.00722
352.50 2.00671
353.00 2.00618
353.50 2.00426
354.00 2.00247
354.50 2.00082
355.00 1.99933
355.50 1.99799
356.00 1.99678
356.50 1.99571
357.00 1.99478
357.50 1.99468
358.00 1.99412
358.50 1.99378
359.00 1.99360
359.50 1.99357
360.00 1.99369
