phi[deg] B[T]
0.00 1.21246
0.50 1.21179
1.00 1.21130
1.50 1.21117
2.00 1.21084
2.50 1.20999
3.00 1.20889
3.50 1.20760
4.00 1.20638
4.50 1.20526
5.00 1.20418
5.50 1.20136
6.00 1.19848
6.50 1.19628
7.00 1.19456
7.50 1.19178
8.00 1.18790
8.50 1.18404
9.00 1.18021
9.50 1.17639
10.00 1.17178
10.50 1.16713
11.00 1.16246
11.50 1.15785
12.00 1.15465
12.50 1.14692
13.00 1.13826
13.50 1.12955
14.00 1.12079
14.50 1.11180
15.00 1.10067
15.50 1.08939
16.00 1.07797
16.50 1.06640
17.00 1.05465
17.50 1.03812
18.00 1.01801
18.50 0.99773
19.00 0.97730
19.50 0.95760
20.00 0.93437
20.50 0.91089
21.00 0.88718
21.50 0.86108
22.00 0.83385
22.50 0.80020
23.00 0.76631
23.50 0.73219
24.00 0.69948
24.50 0.66489
25.00 0.63011
25.50 0.59728
26.00 0.56425
26.50 0.53102
27.00 0.49759
27.50 0.46121
28.00 0.42003
28.50 0.38094
29.00 0.34827
29.50 0.32392
30.00 0.29952
30.50 0.27507
31.00 0.25057
31.50 0.22603
32.00 0.20045
32.50 0.17625
33.00 0.16168
33.50 0.14822
34.00 0.13567
34.50 0.12313
35.00 0.11059
35.50 0.09806
36.00 0.08573
36.50 0.07794
37.00 0.07014
37.50 0.06310
38.00 0.05750
38.50 0.05191
39.00 0.04632
39.50 0.04110
40.00 0.03702
40.50 0.03343
41.00 0.03054
41.50 0.02766
42.00 0.02477
42.50 0.02189
43.00 0.01969
43.50 0.01797
44.00 0.01626
44.50 0.01455
45.00 0.01284
45.50 0.01179
46.00 0.01074
46.50 0.00969
47.00 0.00865
47.50 0.00761
48.00 0.00699
48.50 0.00640
49.00 0.00581
49.50 0.00521
50.00 0.00462
50.50 0.00415
51.00 0.00373
51.50 0.00339
52.00 0.00312
52.50 0.00285
53.00 0.00258
53.50 0.00231
54.00 0.00206
54.50 0.00181
55.00 0.00169
55.50 0.00157
56.00 0.00145
56.50 0.00134
57.00 0.00122
57.50 0.00110
58.00 0.00098
58.50 0.00088
59.00 0.00083
59.50 0.00078
60.00 0.00073
60.50 0.00068
61.00 0.00062
61.50 0.00057
62.00 0.00052
62.50 0.00048
63.00 0.00046
63.50 0.00044
64.00 0.00042
64.50 0.00040
65.00 0.00038
65.50 0.00036
66.00 0.00034
66.50 0.00032
67.00 0.00031
67.50 0.00030
68.00 0.00029
68.50 0.00028
69.00 0.00027
69.50 0.00026
70.00 0.00025
70.50 0.00024
71.00 0.00024
71.50 0.00023
72.00 0.00022
72.50 0.00021
73.00 0.00021
73.50 0.00020
74.00 0.00019
74.50 0.00019
75.00 0.00018
75.50 0.00018
76.00 0.00017
76.50 0.00016
77.00 0.00016
77.50 0.00015
78.00 0.00015
78.50 0.00014
79.00 0.00013
79.50 0.00013
80.00 0.00012
80.50 0.00012
81.00 0.00011
81.50 0.00010
82.00 0.00010
82.50 0.00009
83.00 0.00009
83.50 0.00008
84.00 0.00007
84.50 0.00007
85.00 0.00006
85.50 0.00006
86.00 0.00005
86.50 0.00004
87.00 0.00004
87.50 0.00003
88.00 0.00003
88.50 0.00003
89.00 0.00002
89.50 0.00002
90.00 0.00002
90.00 0.00002
90.50 0.00002
91.00 0.00002
91.50 0.00003
92.00 0.00003
92.50 0.00003
93.00 0.00004
93.50 0.00004
94.00 0.00005
94.50 0.00006
95.00 0.00006
95.50 0.00007
96.00 0.00007
96.50 0.00008
97.00 0.00009
97.50 0.00009
98.00 0.00010
98.50 0.00010
99.00 0.00011
99.50 0.00012
100.00 0.00012
100.50 0.00013
101.00 0.00013
101.50 0.00014
102.00 0.00015
102.50 0.00015
103.00 0.00016
103.50 0.00016
104.00 0.00017
104.50 0.00018
105.00 0.00018
105.50 0.00019
106.00 0.00019
106.50 0.00020
107.00 0.00021
107.50 0.00021
108.00 0.00022
108.50 0.00023
109.00 0.00024
109.50 0.00024
110.00 0.00025
110.50 0.00026
111.00 0.00027
111.50 0.00028
112.00 0.00029
112.50 0.00030
113.00 0.00031
113.50 0.00032
114.00 0.00034
114.50 0.00036
115.00 0.00038
115.50 0.00040
116.00 0.00042
116.50 0.00044
117.00 0.00046
117.50 0.00048
118.00 0.00052
118.50 0.00057
119.00 0.00062
119.50 0.00068
120.00 0.00073
120.50 0.00078
121.00 0.00083
121.50 0.00088
122.00 0.00098
122.50 0.00110
123.00 0.00122
123.50 0.00134
124.00 0.00145
124.50 0.00157
125.00 0.00169
125.50 0.00181
126.00 0.00206
126.50 0.00231
127.00 0.00258
127.50 0.00285
128.00 0.00312
128.50 0.00339
129.00 0.00373
129.50 0.00415
130.00 0.00462
130.50 0.00521
131.00 0.00581
131.50 0.00640
132.00 0.00699
132.50 0.00761
133.00 0.00865
133.50 0.00969
134.00 0.01074
134.50 0.01179
135.00 0.01284
135.50 0.01455
136.00 0.01626
136.50 0.01797
137.00 0.01969
137.50 0.02189
138.00 0.02477
138.50 0.02766
139.00 0.03054
139.50 0.03343
140.00 0.03702
140.50 0.04110
141.00 0.04632
141.50 0.05191
142.00 0.05750
142.50 0.06310
143.00 0.07014
143.50 0.07794
144.00 0.08573
144.50 0.09806
145.00 0.11059
145.50 0.12313
146.00 0.13567
146.50 0.14822
147.00 0.16168
147.50 0.17625
148.00 0.20045
148.50 0.22603
149.00 0.25057
149.50 0.27507
150.00 0.29952
150.50 0.32392
151.00 0.34827
151.50 0.38094
152.00 0.42003
152.50 0.46121
153.00 0.49759
153.50 0.53102
154.00 0.56425
154.50 0.59728
155.00 0.63011
155.50 0.66489
156.00 0.69948
156.50 0.73219
157.00 0.76631
157.50 0.80020
158.00 0.83385
158.50 0.86108
159.00 0.88718
159.50 0.91089
160.00 0.93437
160.50 0.95760
161.00 0.97730
161.50 0.99773
162.00 1.01801
162.50 1.03812
163.00 1.05465
163.50 1.06640
164.00 1.07797
164.50 1.08939
165.00 1.10067
165.50 1.11180
166.00 1.12079
166.50 1.12955
167.00 1.13826
167.50 1.14692
168.00 1.15465
168.50 1.15785
169.00 1.16246
169.50 1.16713
170.00 1.17178
170.50 1.17639
171.00 1.18021
171.50 1.18404
172.00 1.18790
172.50 1.19178
173.00 1.19456
173.50 1.19628
174.00 1.19848
174.50 1.20136
175.00 1.20418
175.50 1.20526
176.00 1.20638
176.50 1.20760
177.00 1.20889
177.50 1.20999
178.00 1.21084
178.50 1.21117
179.00 1.21130
179.50 1.21179
180.00 1.21246
180.00 1.21246
180.50 1.21179
181.00 1.21130
181.50 1.21117
182.00 1.21084
182.50 1.20999
183.00 1.20889
183.50 1.20760
184.00 1.20638
184.50 1.20526
185.00 1.20418
185.50 1.20136
186.00 1.19848
186.50 1.19628
187.00 1.19456
187.50 1.19178
188.00 1.18790
188.50 1.18404
189.00 1.18021
189.50 1.17639
190.00 1.17178
190.50 1.16713
191.00 1.16246
191.50 1.15785
192.00 1.15465
192.50 1.14692
193.00 1.13826
193.50 1.12955
194.00 1.12079
194.50 1.11180
195.00 1.10067
195.50 1.08939
196.00 1.07797
196.50 1.06640
197.00 1.05465
197.50 1.03812
198.00 1.01801
198.50 0.99773
199.00 0.97730
199.50 0.95760
200.00 0.93437
200.50 0.91089
201.00 0.88718
201.50 0.86108
202.00 0.83385
202.50 0.80020
203.00 0.76631
203.50 0.73219
204.00 0.69948
204.50 0.66489
205.00 0.63011
205.50 0.59728
206.00 0.56425
206.50 0.53102
207.00 0.49759
207.50 0.46121
208.00 0.42003
208.50 0.38094
209.00 0.34827
209.50 0.32392
210.00 0.29952
210.50 0.27507
211.00 0.25057
211.50 0.22603
212.00 0.20045
212.50 0.17625
213.00 0.16168
213.50 0.14822
214.00 0.13567
214.50 0.12313
215.00 0.11059
215.50 0.09806
216.00 0.08573
216.50 0.07794
217.00 0.07014
217.50 0.06310
218.00 0.05750
218.50 0.05191
219.00 0.04632
219.50 0.04110
220.00 0.03702
220.50 0.03343
221.00 0.03054
221.50 0.02766
222.00 0.02477
222.50 0.02189
223.00 0.01969
223.50 0.01797
224.00 0.01626
224.50 0.01455
225.00 0.01284
225.50 0.01179
226.00 0.01074
226.50 0.00969
227.00 0.00865
227.50 0.00761
228.00 0.00699
228.50 0.00640
229.00 0.00581
229.50 0.00521
230.00 0.00462
230.50 0.00415
231.00 0.00373
231.50 0.00339
232.00 0.00312
232.50 0.00285
233.00 0.00258
233.50 0.00231
234.00 0.00206
234.50 0.00181
235.00 0.00169
235.50 0.00157
236.00 0.00145
236.50 0.00134
237.00 0.00122
237.50 0.00110
238.00 0.00098
238.50 0.00088
239.00 0.00083
239.50 0.00078
240.00 0.00073
240.50 0.00068
241.00 0.00062
241.50 0.00057
242.00 0.00052
242.50 0.00048
243.00 0.00046
243.50 0.00044
244.00 0.00042
244.50 0.00040
245.00 0.00038
245.50 0.00036
246.00 0.00034
246.50 0.00032
247.00 0.00031
247.50 0.00030
248.00 0.00029
248.50 0.00028
249.00 0.00027
249.50 0.00026
250.00 0.00025
250.50 0.00024
251.00 0.00024
251.50 0.00023
252.00 0.00022
252.50 0.00021
253.00 0.00021
253.50 0.00020
254.00 0.00019
254.50 0.00019
255.00 0.00018
255.50 0.00018
256.00 0.00017
256.50 0.00016
257.00 0.00016
257.50 0.00015
258.00 0.00015
258.50 0.00014
259.00 0.00013
259.50 0.00013
260.00 0.00012
260.50 0.00012
261.00 0.00011
261.50 0.00010
262.00 0.00010
262.50 0.00009
263.00 0.00009
263.50 0.00008
264.00 0.00007
264.50 0.00007
265.00 0.00006
265.50 0.00006
266.00 0.00005
266.50 0.00004
267.00 0.00004
267.50 0.00003
268.00 0.00003
268.50 0.00003
269.00 0.00002
269.50 0.00002
270.00 0.00002
270.00 0.00002
270.50 0.00002
271.00 0.00002
271.50 0.00003
272.00 0.00003
272.50 0.00003
273.00 0.00004
273.50 0.00004
274.00 0.00005
274.50 0.00006
275.00 0.00006
275.50 0.00007
276.00 0.00007
276.50 0.00008
277.00 0.00009
277.50 0.00009
278.00 0.00010
278.50 0.00010
279.00 0.00011
279.50 0.00012
280.00 0.00012
280.50 0.00013
281.00 0.00013
281.50 0.00014
282.00 0.00015
282.50 0.00015
283.00 0.00016
283.50 0.00016
284.00 0.00017
284.50 0.00018
285.00 0.00018
285.50 0.00019
286.00 0.00019
286.50 0.00020
287.00 0.00021
287.50 0.00021
288.00 0.00022
288.50 0.00023
289.00 0.00024
289.50 0.00024
290.00 0.00025
290.50 0.00026
291.00 0.00027
291.50 0.00028
292.00 0.00029
292.50 0.00030
293.00 0.00031
293.50 0.00032
294.00 0.00034
294.50 0.00036
295.00 0.00038
295.50 0.00040
296.00 0.00042
296.50 0.00044
297.00 0.00046
297.50 0.00048
298.00 0.00052
298.50 0.00057
299.00 0.00062
299.50 0.00068
300.00 0.00073
300.50 0.00078
301.00 0.00083
301.50 0.00088
302.00 0.00098
302.50 0.00110
303.00 0.00122
303.50 0.00134
304.00 0.00145
304.50 0.00157
305.00 0.00169
305.50 0.00181
306.00 0.00206
306.50 0.00231
307.00 0.00258
307.50 0.00285
308.00 0.00312
308.50 0.00339
309.00 0.00373
309.50 0.00415
310.00 0.00462
310.50 0.00521
311.00 0.00581
311.50 0.00640
312.00 0.00699
312.50 0.00761
313.00 0.00865
313.50 0.00969
314.00 0.01074
314.50 0.01179
315.00 0.01284
315.50 0.01455
316.00 0.01626
316.50 0.01797
317.00 0.01969
317.50 0.02189
318.00 0.02477
318.50 0.02766
319.00 0.03054
319.50 0.03343
320.00 0.03702
320.50 0.04110
321.00 0.04632
321.50 0.05191
322.00 0.05750
322.50 0.06310
323.00 0.07014
323.50 0.07794
324.00 0.08573
324.50 0.09806
325.00 0.11059
325.50 0.12313
326.00 0.13567
326.50 0.14822
327.00 0.16168
327.50 0.17625
328.00 0.20045
328.50 0.22603
329.00 0.25057
329.50 0.27507
330.00 0.29952
330.50 0.32392
331.00 0.34827
331.50 0.38094
332.00 0.42003
332.50 0.46121
333.00 0.49759
333.50 0.53102
334.00 0.56425
334.50 0.59728
335.00 0.63011
335.50 0.66489
336.00 0.69948
336.50 0.73219
337.00 0.76631
337.50 0.80020
338.00 0.83385
338.50 0.86108
339.00 0.88718
339.50 0.91089
340.00 0.93437
340.50 0.95760
341.00 0.97730
341.50 0.99773
342.00 1.01801
342.50 1.03812
343.00 1.05465
343.50 1.06640
344.00 1.07797
344.50 1.08939
345.00 1.10067
345.50 1.11180
346.00 1.12079
346.50 1.12955
347.00 1.13826
347.50 1.14692
348.00 1.15465
348.50 1.15785
349.00 1.16246
349.50 1.16713
350.00 1.17178
350.50 1.17639
351.00 1.18021
351.50 1.18404
352.00 1.18790
352.50 1.19178
353.00 1.19456
353.50 1.19628
354.00 1.19848
354.50 1.20136
355.00 1.20418
355.50 1.20526
356.00 1.20638
356.50 1.20760
357.00 1.20889
357.50 1.20999
358.00 1.21084
358.50 1.21117
359.00 1.21130
359.50 1.21179
360.00 1.21246
