phi[deg] B[T]
0.00 1.43306
0.50 1.43239
1.00 1.43196
1.50 1.43198
2.00 1.43205
2.50 1.43204
3.00 1.43139
3.50 1.43081
4.00 1.43027
4.50 1.42947
5.00 1.42864
5.50 1.42785
6.00 1.42711
6.50 1.42642
7.00 1.42577
7.50 1.42345
8.00 1.41947
8.50 1.41602
9.00 1.41315
9.50 1.41030
10.00 1.40747
10.50 1.40466
11.00 1.40188
11.50 1.39913
12.00 1.39268
12.50 1.38632
13.00 1.38083
13.50 1.37530
14.00 1.36974
14.50 1.36415
15.00 1.35667
15.50 1.34706
16.00 1.33742
16.50 1.32774
17.00 1.31788
17.50 1.30410
18.00 1.29272
18.50 1.28125
19.00 1.26969
19.50 1.25803
20.00 1.24274
20.50 1.22619
21.00 1.20956
21.50 1.19283
22.00 1.17427
22.50 1.15228
23.00 1.13018
23.50 1.11087
24.00 1.09181
24.50 1.07261
25.00 1.05327
25.50 1.02759
26.00 1.00130
26.50 0.97489
27.00 0.94834
27.50 0.92127
28.00 0.89514
28.50 0.86955
29.00 0.84382
29.50 0.81795
30.00 0.79021
30.50 0.75949
31.00 0.72863
31.50 0.69764
32.00 0.66652
32.50 0.63568
33.00 0.60742
33.50 0.57852
34.00 0.54953
34.50 0.52046
35.00 0.49131
35.50 0.46207
36.00 0.43441
36.50 0.41071
37.00 0.38685
37.50 0.36295
38.00 0.33900
38.50 0.31500
39.00 0.29097
39.50 0.27316
40.00 0.25590
40.50 0.23861
41.00 0.22124
41.50 0.20362
42.00 0.18598
42.50 0.17398
43.00 0.16241
43.50 0.15104
44.00 0.13969
44.50 0.12833
45.00 0.11697
45.50 0.10959
46.00 0.10221
46.50 0.09482
47.00 0.08744
47.50 0.07989
48.00 0.07313
48.50 0.06834
49.00 0.06364
49.50 0.05903
50.00 0.05442
50.50 0.04982
51.00 0.04536
51.50 0.04257
52.00 0.03977
52.50 0.03697
53.00 0.03417
53.50 0.03138
54.00 0.02864
54.50 0.02610
55.00 0.02455
55.50 0.02300
56.00 0.02145
56.50 0.01990
57.00 0.01835
57.50 0.01680
58.00 0.01524
58.50 0.01396
59.00 0.01313
59.50 0.01230
60.00 0.01148
60.50 0.01065
61.00 0.00983
61.50 0.00900
62.00 0.00818
62.50 0.00742
63.00 0.00694
63.50 0.00651
64.00 0.00609
64.50 0.00567
65.00 0.00525
65.50 0.00483
66.00 0.00441
66.50 0.00400
67.00 0.00370
67.50 0.00347
68.00 0.00324
68.50 0.00300
69.00 0.00277
69.50 0.00253
70.00 0.00229
70.50 0.00215
71.00 0.00202
71.50 0.00188
72.00 0.00174
72.50 0.00160
73.00 0.00146
73.50 0.00136
74.00 0.00128
74.50 0.00120
75.00 0.00112
75.50 0.00103
76.00 0.00095
76.50 0.00087
77.00 0.00079
77.50 0.00073
78.00 0.00069
78.50 0.00065
79.00 0.00061
79.50 0.00056
80.00 0.00052
80.50 0.00048
81.00 0.00043
81.50 0.00040
82.00 0.00038
82.50 0.00036
83.00 0.00033
83.50 0.00031
84.00 0.00028
84.50 0.00027
85.00 0.00025
85.50 0.00024
86.00 0.00023
86.50 0.00021
87.00 0.00020
87.50 0.00019
88.00 0.00018
88.50 0.00018
89.00 0.00017
89.50 0.00017
90.00 0.00016
90.00 0.00016
90.50 0.00017
91.00 0.00017
91.50 0.00018
92.00 0.00018
92.50 0.00019
93.00 0.00020
93.50 0.00021
94.00 0.00023
94.50 0.00024
95.00 0.00025
95.50 0.00027
96.00 0.00028
96.50 0.00031
97.00 0.00033
97.50 0.00036
98.00 0.00038
98.50 0.00040
99.00 0.00043
99.50 0.00048
100.00 0.00052
100.50 0.00056
101.00 0.00061
101.50 0.00065
102.00 0.00069
102.50 0.00073
103.00 0.00079
103.50 0.00087
104.00 0.00095
104.50 0.00103
105.00 0.00112
105.50 0.00120
106.00 0.00128
106.50 0.00136
107.00 0.00146
107.50 0.00160
108.00 0.00174
108.50 0.00188
109.00 0.00202
109.50 0.00215
110.00 0.00229
110.50 0.00253
111.00 0.00277
111.50 0.00300
112.00 0.00324
112.50 0.00347
113.00 0.00370
113.50 0.00400
114.00 0.00441
114.50 0.00483
115.00 0.00525
115.50 0.00567
116.00 0.00609
116.50 0.00651
117.00 0.00694
117.50 0.00742
118.00 0.00818
118.50 0.00900
119.00 0.00983
119.50 0.01065
120.00 0.01148
120.50 0.01230
121.00 0.01313
121.50 0.01396
122.00 0.01524
122.50 0.01680
123.00 0.01835
123.50 0.01990
124.00 0.02145
124.50 0.02300
125.00 0.02455
125.50 0.02610
126.00 0.02864
126.50 0.03138
127.00 0.03417
127.50 0.03697
128.00 0.03977
128.50 0.04257
129.00 0.04536
129.50 0.04982
130.00 0.05442
130.50 0.05903
131.00 0.06364
131.50 0.06834
132.00 0.07313
132.50 0.07989
133.00 0.08744
133.50 0.09482
134.00 0.10221
134.50 0.10959
135.00 0.11697
135.50 0.12833
136.00 0.13969
136.50 0.15104
137.00 0.16241
137.50 0.17398
138.00 0.18598
138.50 0.20362
139.00 0.22124
139.50 0.23861
140.00 0.25590
140.50 0.27316
141.00 0.29097
141.50 0.31500
142.00 0.33900
142.50 0.36295
143.00 0.38685
143.50 0.41071
144.00 0.43441
144.50 0.46207
145.00 0.49131
145.50 0.52046
146.00 0.54953
146.50 0.57852
147.00 0.60742
147.50 0.63568
148.00 0.66652
148.50 0.69764
149.00 0.72863
149.50 0.75949
150.00 0.79021
150.50 0.81795
151.00 0.84382
151.50 0.86955
152.00 0.89514
152.50 0.92127
153.00 0.94834
153.50 0.97489
154.00 1.00130
154.50 1.02759
155.00 1.05327
155.50 1.07261
156.00 1.09181
156.50 1.11087
157.00 1.13018
157.50 1.15228
158.00 1.17427
158.50 1.19283
159.00 1.20956
159.50 1.22619
160.00 1.24274
160.50 1.25803
161.00 1.26969
161.50 1.28125
162.00 1.29272
162.50 1.30410
163.00 1.31788
163.50 1.32774
164.00 1.33742
164.50 1.34706
165.00 1.35667
165.50 1.36415
166.00 1.36974
166.50 1.37530
167.00 1.38083
167.50 1.38632
168.00 1.39268
168.50 1.39913
169.00 1.40188
169.50 1.40466
170.00 1.40747
170.50 1.41030
171.00 1.41315
171.50 1.41602
172.00 1.41947
172.50 1.42345
173.00 1.42577
173.50 1.42642
174.00 1.42711
174.50 1.42785
175.00 1.42864
175.50 1.42947
176.00 1.43027
176.50 1.43081
177.00 1.43139
177.50 1.43204
178.00 1.43205
178.50 1.43198
179.00 1.43196
179.50 1.43239
180.00 1.43306
180.00 1.43306
180.50 1.43239
181.00 1.43196
181.50 1.43198
182.00 1.43205
182.50 1.43204
183.00 1.43139
183.50 1.43081
184.00 1.43027
184.50 1.42947
185.00 1.42864
185.50 1.42785
186.00 1.42711
186.50 1.42642
187.00 1.42577
187.50 1.42345
188.00 1.41947
188.50 1.41602
189.00 1.41315
189.50 1.41030
190.00 1.40747
190.50 1.40466
191.00 1.40188
191.50 1.39913
192.00 1.39268
192.50 1.38632
193.00 1.38083
193.50 1.37530
194.00 1.36974
194.50 1.36415
195.00 1.35667
195.50 1.34706
196.00 1.33742
196.50 1.32774
197.00 1.31788
197.50 1.30410
198.00 1.29272
198.50 1.28125
199.00 1.26969
199.50 1.25803
200.00 1.24274
200.50 1.22619
201.00 1.20956
201.50 1.19283
202.00 1.17427
202.50 1.15228
203.00 1.13018
203.50 1.11087
204.00 1.09181
204.50 1.07261
205.00 1.05327
205.50 1.02759
206.00 1.00130
206.50 0.97489
207.00 0.94834
207.50 0.92127
208.00 0.89514
208.50 0.86955
209.00 0.84382
209.50 0.81795
210.00 0.79021
210.50 0.75949
211.00 0.72863
211.50 0.69764
212.00 0.66652
212.50 0.63568
213.00 0.60742
213.50 0.57852
214.00 0.54953
214.50 0.52046
215.00 0.49131
215.50 0.46207
216.00 0.43441
216.50 0.41071
217.00 0.38685
217.50 0.36295
218.00 0.33900
218.50 0.31500
219.00 0.29097
219.50 0.27316
220.00 0.25590
220.50 0.23861
221.00 0.22124
221.50 0.20362
222.00 0.18598
222.50 0.17398
223.00 0.16241
223.50 0.15104
224.00 0.13969
224.50 0.12833
225.00 0.11697
225.50 0.10959
226.00 0.10221
226.50 0.09482
227.00 0.08744
227.50 0.07989
228.00 0.07313
228.50 0.06834
229.00 0.06364
229.50 0.05903
230.00 0.05442
230.50 0.04982
231.00 0.04536
231.50 0.04257
232.00 0.03977
232.50 0.03697
233.00 0.03417
233.50 0.03138
234.00 0.02864
234.50 0.02610
235.00 0.02455
235.50 0.02300
236.00 0.02145
236.50 0.01990
237.00 0.01835
237.50 0.01680
238.00 0.01524
238.50 0.01396
239.00 0.01313
239.50 0.01230
240.00 0.01148
240.50 0.01065
241.00 0.00983
241.50 0.00900
242.00 0.00818
242.50 0.00742
243.00 0.00694
243.50 0.00651
244.00 0.00609
244.50 0.00567
245.00 0.00525
245.50 0.00483
246.00 0.00441
246.50 0.00400
247.00 0.00370
247.50 0.00347
248.00 0.00324
248.50 0.00300
249.00 0.00277
249.50 0.00253
250.00 0.00229
250.50 0.00215
251.00 0.00202
251.50 0.00188
252.00 0.00174
252.50 0.00160
253.00 0.00146
253.50 0.00136
254.00 0.00128
254.50 0.00120
255.00 0.00112
255.50 0.00103
256.00 0.00095
256.50 0.00087
257.00 0.00079
257.50 0.00073
258.00 0.00069
258.50 0.00065
259.00 0.00061
259.50 0.00056
260.00 0.00052
260.50 0.00048
261.00 0.00043
261.50 0.00040
262.00 0.00038
262.50 0.00036
263.00 0.00033
263.50 0.00031
264.00 0.00028
264.50 0.00027
265.00 0.00025
265.50 0.00024
266.00 0.00023
266.50 0.00021
267.00 0.00020
267.50 0.00019
268.00 0.00018
268.50 0.00018
269.00 0.00017
269.50 0.00017
270.00 0.00016
270.00 0.00016
270.50 0.00017
271.00 0.00017
271.50 0.00018
272.00 0.00018
272.50 0.00019
273.00 0.00020
273.50 0.00021
274.00 0.00023
274.50 0.00024
275.00 0.00025
275.50 0.00027
276.00 0.00028
276.50 0.00031
277.00 0.00033
277.50 0.00036
278.00 0.00038
278.50 0.00040
279.00 0.00043
279.50 0.00048
280.00 0.00052
280.50 0.00056
281.00 0.00061
281.50 0.00065
282.00 0.00069
282.50 0.00073
283.00 0.00079
283.50 0.00087
284.00 0.00095
284.50 0.00103
285.00 0.00112
285.50 0.00120
286.00 0.00128
286.50 0.00136
287.00 0.00146
287.50 0.00160
288.00 0.00174
288.50 0.00188
289.00 0.00202
289.50 0.00215
290.00 0.00229
290.50 0.00253
291.00 0.00277
291.50 0.00300
292.00 0.00324
292.50 0.00347
293.00 0.00370
293.50 0.00400
294.00 0.00441
294.50 0.00483
295.00 0.00525
295.50 0.00567
296.00 0.00609
296.50 0.00651
297.00 0.00694
297.50 0.00742
298.00 0.00818
298.50 0.00900
299.00 0.00983
299.50 0.01065
300.00 0.01148
300.50 0.01230
301.00 0.01313
301.50 0.01396
302.00 0.01524
302.50 0.01680
303.00 0.01835
303.50 0.01990
304.00 0.02145
304.50 0.02300
305.00 0.02455
305.50 0.02610
306.00 0.02864
306.50 0.03138
307.00 0.03417
307.50 0.03697
308.00 0.03977
308.50 0.04257
309.00 0.04536
309.50 0.04982
310.00 0.05442
310.50 0.05903
311.00 0.06364
311.50 0.06834
312.00 0.07313
312.50 0.07989
313.00 0.08744
313.50 0.09482
314.00 0.10221
314.50 0.10959
315.00 0.11697
315.50 0.12833
316.00 0.13969
316.50 0.15104
317.00 0.16241
317.50 0.17398
318.00 0.18598
318.50 0.20362
319.00 0.22124
319.50 0.23861
320.00 0.25590
320.50 0.27316
321.00 0.29097
321.50 0.31500
322.00 0.33900
322.50 0.36295
323.00 0.38685
323.50 0.41071
324.00 0.43441
324.50 0.46207
325.00 0.49131
325.50 0.52046
326.00 0.54953
326.50 0.57852
327.00 0.60742
327.50 0.63568
328.00 0.66652
328.50 0.69764
329.00 0.72863
329.50 0.75949
330.00 0.79021
330.50 0.81795
331.00 0.84382
331.50 0.86955
332.00 0.89514
332.50 0.92127
333.00 0.94834
333.50 0.97489
334.00 1.00130
334.50 1.02759
335.00 1.05327
335.50 1.07261
336.00 1.09181
336.50 1.11087
337.00 1.13018
337.50 1.15228
338.00 1.17427
338.50 1.19283
339.00 1.20956
339.50 1.22619
340.00 1.24274
340.50 1.25803
341.00 1.26969
341.50 1.28125
342.00 1.29272
342.50 1.30410
343.00 1.31788
343.50 1.32774
344.00 1.33742
344.50 1.34706
345.00 1.35667
345.50 1.36415
346.00 1.36974
346.50 1.37530
347.00 1.38083
347.50 1.38632
348.00 1.39268
348.50 1.39913
349.00 1.40188
349.50 1.40466
350.00 1.40747
350.50 1.41030
351.00 1.41315
351.50 1.41602
352.00 1.41947
352.50 1.42345
353.00 1.42577
353.50 1.42642
354.00 1.42711
354.50 1.42785
355.00 1.42864
355.50 1.42947
356.00 1.43027
356.50 1.43081
357.00 1.43139
357.50 1.43204
358.00 1.43205
358.50 1.43198
359.00 1.43196
359.50 1.43239
360.00 1.43306
