phi[deg] B[T]
0.00 1.27599
0.50 1.27474
1.00 1.27358
1.50 1.27244
2.00 1.27057
2.50 1.26880
3.00 1.26714
3.50 1.26615
4.00 1.26532
4.50 1.26417
5.00 1.26313
5.50 1.26282
6.00 1.26316
6.50 1.26386
7.00 1.26545
7.50 1.26714
8.00 1.26866
8.50 1.27023
9.00 1.27203
9.50 1.27559
10.00 1.27870
10.50 1.28140
11.00 1.28234
11.50 1.28328
12.00 1.28373
12.50 1.28159
13.00 1.27952
13.50 1.27775
14.00 1.27609
14.50 1.27352
15.00 1.27008
15.50 1.26691
16.00 1.26476
16.50 1.26269
17.00 1.26119
17.50 1.26000
18.00 1.25861
18.50 1.25685
19.00 1.25518
19.50 1.25582
20.00 1.25691
20.50 1.25526
21.00 1.25208
21.50 1.24895
22.00 1.24618
22.50 1.24781
23.00 1.24013
23.50 1.23253
24.00 1.22497
24.50 1.21742
25.00 1.20396
25.50 1.18863
26.00 1.17521
26.50 1.16207
27.00 1.14824
27.50 1.13250
28.00 1.11707
28.50 1.10335
29.00 1.08970
29.50 1.07612
30.00 1.06272
30.50 1.05074
31.00 1.03866
31.50 1.02592
32.00 1.01325
32.50 1.00126
33.00 0.99081
33.50 0.97980
34.00 0.96653
34.50 0.95330
35.00 0.94074
35.50 0.92886
36.00 0.91539
36.50 0.90028
37.00 0.88519
37.50 0.87032
38.00 0.85575
38.50 0.84018
39.00 0.82405
39.50 0.80788
40.00 0.79173
40.50 0.77547
41.00 0.75900
41.50 0.74195
42.00 0.72459
42.50 0.70736
43.00 0.68990
43.50 0.67200
44.00 0.65431
44.50 0.63638
45.00 0.61821
45.50 0.60005
46.00 0.58305
46.50 0.56651
47.00 0.55048
47.50 0.53651
48.00 0.52426
48.50 0.51432
49.00 0.50486
49.50 0.49716
50.00 0.49340
50.50 0.49205
51.00 0.48499
51.50 0.47792
52.00 0.47256
52.50 0.47052
53.00 0.46527
53.50 0.45555
54.00 0.44572
54.50 0.43639
55.00 0.42813
55.50 0.41632
56.00 0.39920
56.50 0.38191
57.00 0.36448
57.50 0.34688
58.00 0.32649
58.50 0.30319
59.00 0.27906
59.50 0.24876
60.00 0.21831
60.50 0.19483
61.00 0.17325
61.50 0.15114
62.00 0.12519
62.50 0.10389
63.00 0.08699
63.50 0.07486
64.00 0.06291
64.50 0.05168
65.00 0.04396
65.50 0.03622
66.00 0.02990
66.50 0.02462
67.00 0.02125
67.50 0.01787
68.00 0.01449
68.50 0.01219
69.00 0.01047
69.50 0.00874
70.00 0.00701
70.50 0.00610
71.00 0.00520
71.50 0.00427
72.00 0.00355
72.50 0.00307
73.00 0.00261
73.50 0.00214
74.00 0.00190
74.50 0.00166
75.00 0.00143
75.50 0.00123
76.00 0.00111
76.50 0.00102
77.00 0.00093
77.50 0.00085
78.00 0.00078
78.50 0.00072
79.00 0.00068
79.50 0.00065
80.00 0.00061
80.50 0.00058
81.00 0.00054
81.50 0.00051
82.00 0.00048
82.50 0.00045
83.00 0.00042
83.50 0.00039
84.00 0.00037
84.50 0.00034
85.00 0.00031
85.50 0.00029
86.00 0.00026
86.50 0.00023
87.00 0.00020
87.50 0.00018
88.00 0.00016
88.50 0.00013
89.00 0.00012
89.50 0.00011
90.00 0.00010
90.00 0.00010
90.50 0.00011
91.00 0.00012
91.50 0.00013
92.00 0.00016
92.50 0.00018
93.00 0.00020
93.50 0.00023
94.00 0.00026
94.50 0.00029
95.00 0.00031
95.50 0.00034
96.00 0.00037
96.50 0.00039
97.00 0.00042
97.50 0.00045
98.00 0.00048
98.50 0.00051
99.00 0.00054
99.50 0.00058
100.00 0.00061
100.50 0.00065
101.00 0.00068
101.50 0.00072
102.00 0.00078
102.50 0.00085
103.00 0.00093
103.50 0.00102
104.00 0.00111
104.50 0.00123
105.00 0.00143
105.50 0.00166
106.00 0.00190
106.50 0.00214
107.00 0.00261
107.50 0.00307
108.00 0.00355
108.50 0.00427
109.00 0.00520
109.50 0.00610
110.00 0.00701
110.50 0.00874
111.00 0.01047
111.50 0.01219
112.00 0.01449
112.50 0.01787
113.00 0.02125
113.50 0.02462
114.00 0.02990
114.50 0.03622
115.00 0.04396
115.50 0.05168
116.00 0.06291
116.50 0.07486
117.00 0.08699
117.50 0.10389
118.00 0.12519
118.50 0.15114
119.00 0.17325
119.50 0.19483
120.00 0.21831
120.50 0.24876
121.00 0.27906
121.50 0.30319
122.00 0.32649
122.50 0.34688
123.00 0.36448
123.50 0.38191
124.00 0.39920
124.50 0.41632
125.00 0.42813
125.50 0.43639
126.00 0.44572
126.50 0.45555
127.00 0.46527
127.50 0.47052
128.00 0.47256
128.50 0.47792
129.00 0.48499
129.50 0.49205
130.00 0.49340
130.50 0.49716
131.00 0.50486
131.50 0.51432
132.00 0.52426
132.50 0.53651
133.00 0.55048
133.50 0.56651
134.00 0.58305
134.50 0.60005
135.00 0.61821
135.50 0.63638
136.00 0.65431
136.50 0.67200
137.00 0.68990
137.50 0.70736
138.00 0.72459
138.50 0.74195
139.00 0.75900
139.50 0.77547
140.00 0.79173
140.50 0.80788
141.00 0.82405
141.50 0.84018
142.00 0.85575
142.50 0.87032
143.00 0.88519
143.50 0.90028
144.00 0.91539
144.50 0.92886
145.00 0.94074
145.50 0.95330
146.00 0.96653
146.50 0.97980
147.00 0.99081
147.50 1.00126
148.00 1.01325
148.50 1.02592
149.00 1.03866
149.50 1.05074
150.00 1.06272
150.50 1.07612
151.00 1.08970
151.50 1.10335
152.00 1.11707
152.50 1.13250
153.00 1.14824
153.50 1.16207
154.00 1.17521
154.50 1.18863
155.00 1.20396
155.50 1.21742
156.00 1.22497
156.50 1.23253
157.00 1.24013
157.50 1.24781
158.00 1.24618
158.50 1.24895
159.00 1.25208
159.50 1.25526
160.00 1.25691
160.50 1.25582
161.00 1.25518
161.50 1.25685
162.00 1.25861
162.50 1.26000
163.00 1.26119
163.50 1.26269
164.00 1.26476
164.50 1.26691
165.00 1.27008
165.50 1.27352
166.00 1.27609
166.50 1.27775
167.00 1.27952
167.50 1.28159
168.00 1.28373
168.50 1.28328
169.00 1.28234
169.50 1.28140
170.00 1.27870
170.50 1.27559
171.00 1.27203
171.50 1.27023
172.00 1.26866
172.50 1.26714
173.00 1.26545
173.50 1.26386
174.00 1.26316
174.50 1.26282
175.00 1.26313
175.50 1.26417
176.00 1.26532
176.50 1.26615
177.00 1.26714
177.50 1.26880
178.00 1.27057
178.50 1.27244
179.00 1.27358
179.50 1.27474
180.00 1.27599
180.00 1.27599
180.50 1.27474
181.00 1.27358
181.50 1.27244
182.00 1.27057
182.50 1.26880
183.00 1.26714
183.50 1.26615
184.00 1.26532
184.50 1.26417
185.00 1.26313
185.50 1.26282
186.00 1.26316
186.50 1.26386
187.00 1.26545
187.50 1.26714
188.00 1.26866
188.50 1.27023
189.00 1.27203
189.50 1.27559
190.00 1.27870
190.50 1.28140
191.00 1.28234
191.50 1.28328
192.00 1.28373
192.50 1.28159
193.00 1.27952
193.50 1.27775
194.00 1.27609
194.50 1.27352
195.00 1.27008
195.50 1.26691
196.00 1.26476
196.50 1.26269
197.00 1.26119
197.50 1.26000
198.00 1.25861
198.50 1.25685
199.00 1.25518
199.50 1.25582
200.00 1.25691
200.50 1.25526
201.00 1.25208
201.50 1.24895
202.00 1.24618
202.50 1.24781
203.00 1.24013
203.50 1.23253
204.00 1.22497
204.50 1.21742
205.00 1.20396
205.50 1.18863
206.00 1.17521
206.50 1.16207
207.00 1.14824
207.50 1.13250
208.00 1.11707
208.50 1.10335
209.00 1.08970
209.50 1.07612
210.00 1.06272
210.50 1.05074
211.00 1.03866
211.50 1.02592
212.00 1.01325
212.50 1.00126
213.00 0.99081
213.50 0.97980
214.00 0.96653
214.50 0.95330
215.00 0.94074
215.50 0.92886
216.00 0.91539
216.50 0.90028
217.00 0.88519
217.50 0.87032
218.00 0.85575
218.50 0.84018
219.00 0.82405
219.50 0.80788
220.00 0.79173
220.50 0.77547
221.00 0.75900
221.50 0.74195
222.00 0.72459
222.50 0.70736
223.00 0.68990
223.50 0.67200
224.00 0.65431
224.50 0.63638
225.00 0.61821
225.50 0.60005
226.00 0.58305
226.50 0.56651
227.00 0.55048
227.50 0.53651
228.00 0.52426
228.50 0.51432
229.00 0.50486
229.50 0.49716
230.00 0.49340
230.50 0.49205
231.00 0.48499
231.50 0.47792
232.00 0.47256
232.50 0.47052
233.00 0.46527
233.50 0.45555
234.00 0.44572
234.50 0.43639
235.00 0.42813
235.50 0.41632
236.00 0.39920
236.50 0.38191
237.00 0.36448
237.50 0.34688
238.00 0.32649
238.50 0.30319
239.00 0.27906
239.50 0.24876
240.00 0.21831
240.50 0.19483
241.00 0.17325
241.50 0.15114
242.00 0.12519
242.50 0.10389
243.00 0.08699
243.50 0.07486
244.00 0.06291
244.50 0.05168
245.00 0.04396
245.50 0.03622
246.00 0.02990
246.50 0.02462
247.00 0.02125
247.50 0.01787
248.00 0.01449
248.50 0.01219
249.00 0.01047
249.50 0.00874
250.00 0.00701
250.50 0.00610
251.00 0.00520
251.50 0.00427
252.00 0.00355
252.50 0.00307
253.00 0.00261
253.50 0.00214
254.00 0.00190
254.50 0.00166
255.00 0.00143
255.50 0.00123
256.00 0.00111
256.50 0.00102
257.00 0.00093
257.50 0.00085
258.00 0.00078
258.50 0.00072
259.00 0.00068
259.50 0.00065
260.00 0.00061
260.50 0.00058
261.00 0.00054
261.50 0.00051
262.00 0.00048
262.50 0.00045
263.00 0.00042
263.50 0.00039
264.00 0.00037
264.50 0.00034
265.00 0.00031
265.50 0.00029
266.00 0.00026
266.50 0.00023
267.00 0.00020
267.50 0.00018
268.00 0.00016
268.50 0.00013
269.00 0.00012
269.50 0.00011
270.00 0.00010
270.00 0.00010
270.50 0.00011
271.00 0.00012
271.50 0.00013
272.00 0.00016
272.50 0.00018
273.00 0.00020
273.50 0.00023
274.00 0.00026
274.50 0.00029
275.00 0.00031
275.50 0.00034
276.00 0.00037
276.50 0.00039
277.00 0.00042
277.50 0.00045
278.00 0.00048
278.50 0.00051
279.00 0.00054
279.50 0.00058
280.00 0.00061
280.50 0.00065
281.00 0.00068
281.50 0.00072
282.00 0.00078
282.50 0.00085
283.00 0.00093
283.50 0.00102
284.00 0.00111
284.50 0.00123
285.00 0.00143
285.50 0.00166
286.00 0.00190
286.50 0.00214
287.00 0.00261
287.50 0.00307
288.00 0.00355
288.50 0.00427
289.00 0.00520
289.50 0.00610
290.00 0.00701
290.50 0.00874
291.00 0.01047
291.50 0.01219
292.00 0.01449
292.50 0.01787
293.00 0.02125
293.50 0.02462
294.00 0.02990
294.50 0.03622
295.00 0.04396
295.50 0.05168
296.00 0.06291
296.50 0.07486
297.00 0.08699
297.50 0.10389
298.00 0.12519
298.50 0.15114
299.00 0.17325
299.50 0.19483
300.00 0.21831
300.50 0.24876
301.00 0.27906
301.50 0.30319
302.00 0.32649
302.50 0.34688
303.00 0.36448
303.50 0.38191
304.00 0.39920
304.50 0.41632
305.00 0.42813
305.50 0.43639
306.00 0.44572
306.50 0.45555
307.00 0.46527
307.50 0.47052
308.00 0.47256
308.50 0.47792
309.00 0.48499
309.50 0.49205
310.00 0.49340
310.50 0.49716
311.00 0.50486
311.50 0.51432
312.00 0.52426
312.50 0.53651
313.00 0.55048
313.50 0.56651
314.00 0.58305
314.50 0.60005
315.00 0.61821
315.50 0.63638
316.00 0.65431
316.50 0.67200
317.00 0.68990
317.50 0.70736
318.00 0.72459
318.50 0.74195
319.00 0.75900
319.50 0.77547
320.00 0.79173
320.50 0.80788
321.00 0.82405
321.50 0.84018
322.00 0.85575
322.50 0.87032
323.00 0.88519
323.50 0.90028
324.00 0.91539
324.50 0.92886
325.00 0.94074
325.50 0.95330
326.00 0.96653
326.50 0.97980
327.00 0.99081
327.50 1.00126
328.00 1.01325
328.50 1.02592
329.00 1.03866
329.50 1.05074
330.00 1.06272
330.50 1.07612
331.00 1.08970
331.50 1.10335
332.00 1.11707
332.50 1.13250
333.00 1.14824
333.50 1.16207
334.00 1.17521
334.50 1.18863
335.00 1.20396
335.50 1.21742
336.00 1.22497
336.50 1.23253
337.00 1.24013
337.50 1.24781
338.00 1.24618
338.50 1.24895
339.00 1.25208
339.50 1.25526
340.00 1.25691
340.50 1.25582
341.00 1.25518
341.50 1.25685
342.00 1.25861
342.50 1.26000
343.00 1.26119
343.50 1.26269
344.00 1.26476
344.50 1.26691
345.00 1.27008
345.50 1.27352
346.00 1.27609
346.50 1.27775
347.00 1.27952
347.50 1.28159
348.00 1.28373
348.50 1.28328
349.00 1.28234
349.50 1.28140
350.00 1.27870
350.50 1.27559
351.00 1.27203
351.50 1.27023
352.00 1.26866
352.50 1.26714
353.00 1.26545
353.50 1.26386
354.00 1.26316
354.50 1.26282
355.00 1.26313
355.50 1.26417
356.00 1.26532
356.50 1.26615
357.00 1.26714
357.50 1.26880
358.00 1.27057
358.50 1.27244
359.00 1.27358
359.50 1.27474
360.00 1.27599
