phi[deg] B[T]
0.00 1.24955
0.50 1.24912
1.00 1.24878
1.50 1.24854
2.00 1.24833
2.50 1.24807
3.00 1.24790
3.50 1.24784
4.00 1.24788
4.50 1.24803
5.00 1.24828
5.50 1.24862
6.00 1.24907
6.50 1.24961
7.00 1.25019
7.50 1.25086
8.00 1.25163
8.50 1.25250
9.00 1.25400
9.50 1.25556
10.00 1.25700
10.50 1.25801
11.00 1.25888
11.50 1.25983
12.00 1.26087
12.50 1.26137
13.00 1.26174
13.50 1.26213
14.00 1.26217
14.50 1.26230
15.00 1.26250
15.50 1.26272
16.00 1.26299
16.50 1.26328
17.00 1.26286
17.50 1.26253
18.00 1.26227
18.50 1.26228
19.00 1.26337
19.50 1.26455
20.00 1.26581
20.50 1.26441
21.00 1.26297
21.50 1.26157
22.00 1.26021
22.50 1.25857
23.00 1.25697
23.50 1.25346
24.00 1.24718
24.50 1.24092
25.00 1.23466
25.50 1.22550
26.00 1.21616
26.50 1.20618
27.00 1.19496
27.50 1.18376
28.00 1.17259
28.50 1.16123
29.00 1.14947
29.50 1.13732
30.00 1.12473
30.50 1.11172
31.00 1.09875
31.50 1.08580
32.00 1.07289
32.50 1.06084
33.00 1.04881
33.50 1.03447
34.00 1.01927
34.50 1.00409
35.00 0.98892
35.50 0.97537
36.00 0.96259
36.50 0.94742
37.00 0.93118
37.50 0.91386
38.00 0.89607
38.50 0.87827
39.00 0.86101
39.50 0.84388
40.00 0.82476
40.50 0.80556
41.00 0.78603
41.50 0.76616
42.00 0.74628
42.50 0.72613
43.00 0.70505
43.50 0.68438
44.00 0.66289
44.50 0.64052
45.00 0.61824
45.50 0.59597
46.00 0.57390
46.50 0.55163
47.00 0.52917
47.50 0.50743
48.00 0.48693
48.50 0.46648
49.00 0.44792
49.50 0.43130
50.00 0.41470
50.50 0.39839
51.00 0.38243
51.50 0.37167
52.00 0.36054
52.50 0.34793
53.00 0.33454
53.50 0.32251
54.00 0.31348
54.50 0.30441
55.00 0.29187
55.50 0.27787
56.00 0.26381
56.50 0.25034
57.00 0.24065
57.50 0.22858
58.00 0.21257
58.50 0.19780
59.00 0.18363
59.50 0.16937
60.00 0.15428
60.50 0.13871
61.00 0.12307
61.50 0.10904
62.00 0.09787
62.50 0.08754
63.00 0.07713
63.50 0.06641
64.00 0.05610
64.50 0.04983
65.00 0.04379
65.50 0.03786
66.00 0.03269
66.50 0.02918
67.00 0.02566
67.50 0.02214
68.00 0.01862
68.50 0.01621
69.00 0.01453
69.50 0.01284
70.00 0.01115
70.50 0.00946
71.00 0.00778
71.50 0.00684
72.00 0.00617
72.50 0.00549
73.00 0.00482
73.50 0.00415
74.00 0.00348
74.50 0.00285
75.00 0.00257
75.50 0.00228
76.00 0.00199
76.50 0.00170
77.00 0.00143
77.50 0.00129
78.00 0.00114
78.50 0.00099
79.00 0.00086
79.50 0.00078
80.00 0.00069
80.50 0.00061
81.00 0.00053
81.50 0.00048
82.00 0.00043
82.50 0.00038
83.00 0.00033
83.50 0.00030
84.00 0.00027
84.50 0.00024
85.00 0.00021
85.50 0.00019
86.00 0.00017
86.50 0.00015
87.00 0.00013
87.50 0.00011
88.00 0.00010
88.50 0.00009
89.00 0.00008
89.50 0.00007
90.00 0.00007
90.00 0.00007
90.50 0.00007
91.00 0.00008
91.50 0.00009
92.00 0.00010
92.50 0.00011
93.00 0.00013
93.50 0.00015
94.00 0.00017
94.50 0.00019
95.00 0.00021
95.50 0.00024
96.00 0.00027
96.50 0.00030
97.00 0.00033
97.50 0.00038
98.00 0.00043
98.50 0.00048
99.00 0.00053
99.50 0.00061
100.00 0.00069
100.50 0.00078
101.00 0.00086
101.50 0.00099
102.00 0.00114
102.50 0.00129
103.00 0.00143
103.50 0.00170
104.00 0.00199
104.50 0.00228
105.00 0.00257
105.50 0.00285
106.00 0.00348
106.50 0.00415
107.00 0.00482
107.50 0.00549
108.00 0.00617
108.50 0.00684
109.00 0.00778
109.50 0.00946
110.00 0.01115
110.50 0.01284
111.00 0.01453
111.50 0.01621
112.00 0.01862
112.50 0.02214
113.00 0.02566
113.50 0.02918
114.00 0.03269
114.50 0.03786
115.00 0.04379
115.50 0.04983
116.00 0.05610
116.50 0.06641
117.00 0.07713
117.50 0.08754
118.00 0.09787
118.50 0.10904
119.00 0.12307
119.50 0.13871
120.00 0.15428
120.50 0.16937
121.00 0.18363
121.50 0.19780
122.00 0.21257
122.50 0.22858
123.00 0.24065
123.50 0.25034
124.00 0.26381
124.50 0.27787
125.00 0.29187
125.50 0.30441
126.00 0.31348
126.50 0.32251
127.00 0.33454
127.50 0.34793
128.00 0.36054
128.50 0.37167
129.00 0.38243
129.50 0.39839
130.00 0.41470
130.50 0.43130
131.00 0.44792
131.50 0.46648
132.00 0.48693
132.50 0.50743
133.00 0.52917
133.50 0.55163
134.00 0.57390
134.50 0.59597
135.00 0.61824
135.50 0.64052
136.00 0.66289
136.50 0.68438
137.00 0.70505
137.50 0.72613
138.00 0.74628
138.50 0.76616
139.00 0.78603
139.50 0.80556
140.00 0.82476
140.50 0.84388
141.00 0.86101
141.50 0.87827
142.00 0.89607
142.50 0.91386
143.00 0.93118
143.50 0.94742
144.00 0.96259
144.50 0.97537
145.00 0.98892
145.50 1.00409
146.00 1.01927
146.50 1.03447
147.00 1.04881
147.50 1.06084
148.00 1.07289
148.50 1.08580
149.00 1.09875
149.50 1.11172
150.00 1.12473
150.50 1.13732
151.00 1.14947
151.50 1.16123
152.00 1.17259
152.50 1.18376
153.00 1.19496
153.50 1.20618
154.00 1.21616
154.50 1.22550
155.00 1.23466
155.50 1.24092
156.00 1.24718
156.50 1.25346
157.00 1.25697
157.50 1.25857
158.00 1.26021
158.50 1.26157
159.00 1.26297
159.50 1.26441
160.00 1.26581
160.50 1.26455
161.00 1.26337
161.50 1.26228
162.00 1.26227
162.50 1.26253
163.00 1.26286
163.50 1.26328
164.00 1.26299
164.50 1.26272
165.00 1.26250
165.50 1.26230
166.00 1.26217
166.50 1.26213
167.00 1.26174
167.50 1.26137
168.00 1.26087
168.50 1.25983
169.00 1.25888
169.50 1.25801
170.00 1.25700
170.50 1.25556
171.00 1.25400
171.50 1.25250
172.00 1.25163
172.50 1.25086
173.00 1.25019
173.50 1.24961
174.00 1.24907
174.50 1.24862
175.00 1.24828
175.50 1.24803
176.00 1.24788
176.50 1.24784
177.00 1.24790
177.50 1.24807
178.00 1.24833
178.50 1.24854
179.00 1.24878
179.50 1.24912
180.00 1.24955
180.00 1.24955
180.50 1.24912
181.00 1.24878
181.50 1.24854
182.00 1.24833
182.50 1.24807
183.00 1.24790
183.50 1.24784
184.00 1.24788
184.50 1.24803
185.00 1.24828
185.50 1.24862
186.00 1.24907
186.50 1.24961
187.00 1.25019
187.50 1.25086
188.00 1.25163
188.50 1.25250
189.00 1.25400
189.50 1.25556
190.00 1.25700
190.50 1.25801
191.00 1.25888
191.50 1.25983
192.00 1.26087
192.50 1.26137
193.00 1.26174
193.50 1.26213
194.00 1.26217
194.50 1.26230
195.00 1.26250
195.50 1.26272
196.00 1.26299
196.50 1.26328
197.00 1.26286
197.50 1.26253
198.00 1.26227
198.50 1.26228
199.00 1.26337
199.50 1.26455
200.00 1.26581
200.50 1.26441
201.00 1.26297
201.50 1.26157
202.00 1.26021
202.50 1.25857
203.00 1.25697
203.50 1.25346
204.00 1.24718
204.50 1.24092
205.00 1.23466
205.50 1.22550
206.00 1.21616
206.50 1.20618
207.00 1.19496
207.50 1.18376
208.00 1.17259
208.50 1.16123
209.00 1.14947
209.50 1.13732
210.00 1.12473
210.50 1.11172
211.00 1.09875
211.50 1.08580
212.00 1.07289
212.50 1.06084
213.00 1.04881
213.50 1.03447
214.00 1.01927
214.50 1.00409
215.00 0.98892
215.50 0.97537
216.00 0.96259
216.50 0.94742
217.00 0.93118
217.50 0.91386
218.00 0.89607
218.50 0.87827
219.00 0.86101
219.50 0.84388
220.00 0.82476
220.50 0.80556
221.00 0.78603
221.50 0.76616
222.00 0.74628
222.50 0.72613
223.00 0.70505
223.50 0.68438
224.00 0.66289
224.50 0.64052
225.00 0.61824
225.50 0.59597
226.00 0.57390
226.50 0.55163
227.00 0.52917
227.50 0.50743
228.00 0.48693
228.50 0.46648
229.00 0.44792
229.50 0.43130
230.00 0.41470
230.50 0.39839
231.00 0.38243
231.50 0.37167
232.00 0.36054
232.50 0.34793
233.00 0.33454
233.50 0.32251
234.00 0.31348
234.50 0.30441
235.00 0.29187
235.50 0.27787
236.00 0.26381
236.50 0.25034
237.00 0.24065
237.50 0.22858
238.00 0.21257
238.50 0.19780
239.00 0.18363
239.50 0.16937
240.00 0.15428
240.50 0.13871
241.00 0.12307
241.50 0.10904
242.00 0.09787
242.50 0.08754
243.00 0.07713
243.50 0.06641
244.00 0.05610
244.50 0.04983
245.00 0.04379
245.50 0.03786
246.00 0.03269
246.50 0.02918
247.00 0.02566
247.50 0.02214
248.00 0.01862
248.50 0.01621
249.00 0.01453
249.50 0.01284
250.00 0.01115
250.50 0.00946
251.00 0.00778
251.50 0.00684
252.00 0.00617
252.50 0.00549
253.00 0.00482
253.50 0.00415
254.00 0.00348
254.50 0.00285
255.00 0.00257
255.50 0.00228
256.00 0.00199
256.50 0.00170
257.00 0.00143
257.50 0.00129
258.00 0.00114
258.50 0.00099
259.00 0.00086
259.50 0.00078
260.00 0.00069
260.50 0.00061
261.00 0.00053
261.50 0.00048
262.00 0.00043
262.50 0.00038
263.00 0.00033
263.50 0.00030
264.00 0.00027
264.50 0.00024
265.00 0.00021
265.50 0.00019
266.00 0.00017
266.50 0.00015
267.00 0.00013
267.50 0.00011
268.00 0.00010
268.50 0.00009
269.00 0.00008
269.50 0.00007
270.00 0.00007
270.00 0.00007
270.50 0.00007
271.00 0.00008
271.50 0.00009
272.00 0.00010
272.50 0.00011
273.00 0.00013
273.50 0.00015
274.00 0.00017
274.50 0.00019
275.00 0.00021
275.50 0.00024
276.00 0.00027
276.50 0.00030
277.00 0.00033
277.50 0.00038
278.00 0.00043
278.50 0.00048
279.00 0.00053
279.50 0.00061
280.00 0.00069
280.50 0.00078
281.00 0.00086
281.50 0.00099
282.00 0.00114
282.50 0.00129
283.00 0.00143
283.50 0.00170
284.00 0.00199
284.50 0.00228
285.00 0.00257
285.50 0.00285
286.00 0.00348
286.50 0.00415
287.00 0.00482
287.50 0.00549
288.00 0.00617
288.50 0.00684
289.00 0.00778
289.50 0.00946
290.00 0.01115
290.50 0.01284
291.00 0.01453
291.50 0.01621
292.00 0.01862
292.50 0.02214
293.00 0.02566
293.50 0.02918
294.00 0.03269
294.50 0.03786
295.00 0.04379
295.50 0.04983
296.00 0.05610
296.50 0.06641
297.00 0.07713
297.50 0.08754
298.00 0.09787
298.50 0.10904
299.00 0.12307
299.50 0.13871
300.00 0.15428
300.50 0.16937
301.00 0.18363
301.50 0.19780
302.00 0.21257
302.50 0.22858
303.00 0.24065
303.50 0.25034
304.00 0.26381
304.50 0.27787
305.00 0.29187
305.50 0.30441
306.00 0.31348
306.50 0.32251
307.00 0.33454
307.50 0.34793
308.00 0.36054
308.50 0.37167
309.00 0.38243
309.50 0.39839
310.00 0.41470
310.50 0.43130
311.00 0.44792
311.50 0.46648
312.00 0.48693
312.50 0.50743
313.00 0.52917
313.50 0.55163
314.00 0.57390
314.50 0.59597
315.00 0.61824
315.50 0.64052
316.00 0.66289
316.50 0.68438
317.00 0.70505
317.50 0.72613
318.00 0.74628
318.50 0.76616
319.00 0.78603
319.50 0.80556
320.00 0.82476
320.50 0.84388
321.00 0.86101
321.50 0.87827
322.00 0.89607
322.50 0.91386
323.00 0.93118
323.50 0.94742
324.00 0.96259
324.50 0.97537
325.00 0.98892
325.50 1.00409
326.00 1.01927
326.50 1.03447
327.00 1.04881
327.50 1.06084
328.00 1.07289
328.50 1.08580
329.00 1.09875
329.50 1.11172
330.00 1.12473
330.50 1.13732
331.00 1.14947
331.50 1.16123
332.00 1.17259
332.50 1.18376
333.00 1.19496
333.50 1.20618
334.00 1.21616
334.50 1.22550
335.00 1.23466
335.50 1.24092
336.00 1.24718
336.50 1.25346
337.00 1.25697
337.50 1.25857
338.00 1.26021
338.50 1.26157
339.00 1.26297
339.50 1.26441
340.00 1.26581
340.50 1.26455
341.00 1.26337
341.50 1.26228
342.00 1.26227
342.50 1.26253
343.00 1.26286
343.50 1.26328
344.00 1.26299
344.50 1.26272
345.00 1.26250
345.50 1.26230
346.00 1.26217
346.50 1.26213
347.00 1.26174
347.50 1.26137
348.00 1.26087
348.50 1.25983
349.00 1.25888
349.50 1.25801
350.00 1.25700
350.50 1.25556
351.00 1.25400
351.50 1.25250
352.00 1.25163
352.50 1.25086
353.00 1.25019
353.50 1.24961
354.00 1.24907
354.50 1.24862
355.00 1.24828
355.50 1.24803
356.00 1.24788
356.50 1.24784
357.00 1.24790
357.50 1.24807
358.00 1.24833
358.50 1.24854
359.00 1.24878
359.50 1.24912
360.00 1.24955
