phi[deg] B[T]
0.00 1.31089
0.50 1.31062
1.00 1.31045
1.50 1.31038
2.00 1.31041
2.50 1.31054
3.00 1.31074
3.50 1.31105
4.00 1.31146
4.50 1.31196
5.00 1.31215
5.50 1.31213
6.00 1.31220
6.50 1.31238
7.00 1.31265
7.50 1.31340
8.00 1.31422
8.50 1.31501
9.00 1.31579
9.50 1.31579
10.00 1.31586
10.50 1.31601
11.00 1.31624
11.50 1.31655
12.00 1.31711
12.50 1.31861
13.00 1.32017
13.50 1.32056
14.00 1.32085
14.50 1.32122
15.00 1.32024
15.50 1.31879
16.00 1.31740
16.50 1.31605
17.00 1.31470
17.50 1.31336
18.00 1.31207
18.50 1.31083
19.00 1.30536
19.50 1.29927
20.00 1.29320
20.50 1.28715
21.00 1.27943
21.50 1.27172
22.00 1.26405
22.50 1.25383
23.00 1.24281
23.50 1.23180
24.00 1.22082
24.50 1.20963
25.00 1.19702
25.50 1.18421
26.00 1.17178
26.50 1.15939
27.00 1.14704
27.50 1.13474
28.00 1.12187
28.50 1.10828
29.00 1.09659
29.50 1.08584
30.00 1.07446
30.50 1.06218
31.00 1.04994
31.50 1.03775
32.00 1.02559
32.50 1.01535
33.00 1.00778
33.50 1.00025
34.00 0.99144
34.50 0.97965
35.00 0.96787
35.50 0.95611
36.00 0.94436
36.50 0.93327
37.00 0.92690
37.50 0.92049
38.00 0.90965
38.50 0.89647
39.00 0.88320
39.50 0.86971
40.00 0.85600
40.50 0.84136
41.00 0.82645
41.50 0.81146
42.00 0.79137
42.50 0.77450
43.00 0.75750
43.50 0.73761
44.00 0.71492
44.50 0.69208
45.00 0.66943
45.50 0.64431
46.00 0.62061
46.50 0.59673
47.00 0.56885
47.50 0.53965
48.00 0.51183
48.50 0.48554
49.00 0.45934
49.50 0.42798
50.00 0.39850
50.50 0.37320
51.00 0.34779
51.50 0.32228
52.00 0.29392
52.50 0.26424
53.00 0.24218
53.50 0.22214
54.00 0.20205
54.50 0.18190
55.00 0.16275
55.50 0.15036
56.00 0.13797
56.50 0.12558
57.00 0.11318
57.50 0.10078
58.00 0.08854
58.50 0.08064
59.00 0.07402
59.50 0.06740
60.00 0.06078
60.50 0.05416
61.00 0.04754
61.50 0.04181
62.00 0.03845
62.50 0.03509
63.00 0.03172
63.50 0.02836
64.00 0.02512
64.50 0.02255
65.00 0.02072
65.50 0.01890
66.00 0.01707
66.50 0.01525
67.00 0.01343
67.50 0.01221
68.00 0.01117
68.50 0.01013
69.00 0.00906
69.50 0.00799
70.00 0.00718
70.50 0.00664
71.00 0.00611
71.50 0.00557
72.00 0.00503
72.50 0.00450
73.00 0.00396
73.50 0.00350
74.00 0.00323
74.50 0.00296
75.00 0.00269
75.50 0.00242
76.00 0.00216
76.50 0.00189
77.00 0.00171
77.50 0.00159
78.00 0.00146
78.50 0.00133
79.00 0.00121
79.50 0.00107
80.00 0.00094
80.50 0.00088
81.00 0.00081
81.50 0.00075
82.00 0.00069
82.50 0.00063
83.00 0.00057
83.50 0.00051
84.00 0.00046
84.50 0.00043
85.00 0.00040
85.50 0.00037
86.00 0.00035
86.50 0.00033
87.00 0.00031
87.50 0.00029
88.00 0.00028
88.50 0.00027
89.00 0.00026
89.50 0.00025
90.00 0.00024
90.00 0.00024
90.50 0.00025
91.00 0.00026
91.50 0.00027
92.00 0.00028
92.50 0.00029
93.00 0.00031
93.50 0.00033
94.00 0.00035
94.50 0.00037
95.00 0.00040
95.50 0.00043
96.00 0.00046
96.50 0.00051
97.00 0.00057
97.50 0.00063
98.00 0.00069
98.50 0.00075
99.00 0.00081
99.50 0.00088
100.00 0.00094
100.50 0.00107
101.00 0.00121
101.50 0.00133
102.00 0.00146
102.50 0.00159
103.00 0.00171
103.50 0.00189
104.00 0.00216
104.50 0.00242
105.00 0.00269
105.50 0.00296
106.00 0.00323
106.50 0.00350
107.00 0.00396
107.50 0.00450
108.00 0.00503
108.50 0.00557
109.00 0.00611
109.50 0.00664
110.00 0.00718
110.50 0.00799
111.00 0.00906
111.50 0.01013
112.00 0.01117
112.50 0.01221
113.00 0.01343
113.50 0.01525
114.00 0.01707
114.50 0.01890
115.00 0.02072
115.50 0.02255
116.00 0.02512
116.50 0.02836
117.00 0.03172
117.50 0.03509
118.00 0.03845
118.50 0.04181
119.00 0.04754
119.50 0.05416
120.00 0.06078
120.50 0.06740
121.00 0.07402
121.50 0.08064
122.00 0.08854
122.50 0.10078
123.00 0.11318
123.50 0.12558
124.00 0.13797
124.50 0.15036
125.00 0.16275
125.50 0.18190
126.00 0.20205
126.50 0.22214
127.00 0.24218
127.50 0.26424
128.00 0.29392
128.50 0.32228
129.00 0.34779
129.50 0.37320
130.00 0.39850
130.50 0.42798
131.00 0.45934
131.50 0.48554
132.00 0.51183
132.50 0.53965
133.00 0.56885
133.50 0.59673
134.00 0.62061
134.50 0.64431
135.00 0.66943
135.50 0.69208
136.00 0.71492
136.50 0.73761
137.00 0.75750
137.50 0.77450
138.00 0.79137
138.50 0.81146
139.00 0.82645
139.50 0.84136
140.00 0.85600
140.50 0.86971
141.00 0.88320
141.50 0.89647
142.00 0.90965
142.50 0.92049
143.00 0.92690
143.50 0.93327
144.00 0.94436
144.50 0.95611
145.00 0.96787
145.50 0.97965
146.00 0.99144
146.50 1.00025
147.00 1.00778
147.50 1.01535
148.00 1.02559
148.50 1.03775
149.00 1.04994
149.50 1.06218
150.00 1.07446
150.50 1.08584
151.00 1.09659
151.50 1.10828
152.00 1.12187
152.50 1.13474
153.00 1.14704
153.50 1.15939
154.00 1.17178
154.50 1.18421
155.00 1.19702
155.50 1.20963
156.00 1.22082
156.50 1.23180
157.00 1.24281
157.50 1.25383
158.00 1.26405
158.50 1.27172
159.00 1.27943
159.50 1.28715
160.00 1.29320
160.50 1.29927
161.00 1.30536
161.50 1.31083
162.00 1.31207
162.50 1.31336
163.00 1.31470
163.50 1.31605
164.00 1.31740
164.50 1.31879
165.00 1.32024
165.50 1.32122
166.00 1.32085
166.50 1.32056
167.00 1.32017
167.50 1.31861
168.00 1.31711
168.50 1.31655
169.00 1.31624
169.50 1.31601
170.00 1.31586
170.50 1.31579
171.00 1.31579
171.50 1.31501
172.00 1.31422
172.50 1.31340
173.00 1.31265
173.50 1.31238
174.00 1.31220
174.50 1.31213
175.00 1.31215
175.50 1.31196
176.00 1.31146
176.50 1.31105
177.00 1.31074
177.50 1.31054
178.00 1.31041
178.50 1.31038
179.00 1.31045
179.50 1.31062
180.00 1.31089
180.00 1.31089
180.50 1.31062
181.00 1.31045
181.50 1.31038
182.00 1.31041
182.50 1.31054
183.00 1.31074
183.50 1.31105
184.00 1.31146
184.50 1.31196
185.00 1.31215
185.50 1.31213
186.00 1.31220
186.50 1.31238
187.00 1.31265
187.50 1.31340
188.00 1.31422
188.50 1.31501
189.00 1.31579
189.50 1.31579
190.00 1.31586
190.50 1.31601
191.00 1.31624
191.50 1.31655
192.00 1.31711
192.50 1.31861
193.00 1.32017
193.50 1.32056
194.00 1.32085
194.50 1.32122
195.00 1.32024
195.50 1.31879
196.00 1.31740
196.50 1.31605
197.00 1.31470
197.50 1.31336
198.00 1.31207
198.50 1.31083
199.00 1.30536
199.50 1.29927
200.00 1.29320
200.50 1.28715
201.00 1.27943
201.50 1.27172
202.00 1.26405
202.50 1.25383
203.00 1.24281
203.50 1.23180
204.00 1.22082
204.50 1.20963
205.00 1.19702
205.50 1.18421
206.00 1.17178
206.50 1.15939
207.00 1.14704
207.50 1.13474
208.00 1.12187
208.50 1.10828
209.00 1.09659
209.50 1.08584
210.00 1.07446
210.50 1.06218
211.00 1.04994
211.50 1.03775
212.00 1.02559
212.50 1.01535
213.00 1.00778
213.50 1.00025
214.00 0.99144
214.50 0.97965
215.00 0.96787
215.50 0.95611
216.00 0.94436
216.50 0.93327
217.00 0.92690
217.50 0.92049
218.00 0.90965
218.50 0.89647
219.00 0.88320
219.50 0.86971
220.00 0.85600
220.50 0.84136
221.00 0.82645
221.50 0.81146
222.00 0.79137
222.50 0.77450
223.00 0.75750
223.50 0.73761
224.00 0.71492
224.50 0.69208
225.00 0.66943
225.50 0.64431
226.00 0.62061
226.50 0.59673
227.00 0.56885
227.50 0.53965
228.00 0.51183
228.50 0.48554
229.00 0.45934
229.50 0.42798
230.00 0.39850
230.50 0.37320
231.00 0.34779
231.50 0.32228
232.00 0.29392
232.50 0.26424
233.00 0.24218
233.50 0.22214
234.00 0.20205
234.50 0.18190
235.00 0.16275
235.50 0.15036
236.00 0.13797
236.50 0.12558
237.00 0.11318
237.50 0.10078
238.00 0.08854
238.50 0.08064
239.00 0.07402
239.50 0.06740
240.00 0.06078
240.50 0.05416
241.00 0.04754
241.50 0.04181
242.00 0.03845
242.50 0.03509
243.00 0.03172
243.50 0.02836
244.00 0.02512
244.50 0.02255
245.00 0.02072
245.50 0.01890
246.00 0.01707
246.50 0.01525
247.00 0.01343
247.50 0.01221
248.00 0.01117
248.50 0.01013
249.00 0.00906
249.50 0.00799
250.00 0.00718
250.50 0.00664
251.00 0.00611
251.50 0.00557
252.00 0.00503
252.50 0.00450
253.00 0.00396
253.50 0.00350
254.00 0.00323
254.50 0.00296
255.00 0.00269
255.50 0.00242
256.00 0.00216
256.50 0.00189
257.00 0.00171
257.50 0.00159
258.00 0.00146
258.50 0.00133
259.00 0.00121
259.50 0.00107
260.00 0.00094
260.50 0.00088
261.00 0.00081
261.50 0.00075
262.00 0.00069
262.50 0.00063
263.00 0.00057
263.50 0.00051
264.00 0.00046
264.50 0.00043
265.00 0.00040
265.50 0.00037
266.00 0.00035
266.50 0.00033
267.00 0.00031
267.50 0.00029
268.00 0.00028
268.50 0.00027
269.00 0.00026
269.50 0.00025
270.00 0.00024
270.00 0.00024
270.50 0.00025
271.00 0.00026
271.50 0.00027
272.00 0.00028
272.50 0.00029
273.00 0.00031
273.50 0.00033
274.00 0.00035
274.50 0.00037
275.00 0.00040
275.50 0.00043
276.00 0.00046
276.50 0.00051
277.00 0.00057
277.50 0.00063
278.00 0.00069
278.50 0.00075
279.00 0.00081
279.50 0.00088
280.00 0.00094
280.50 0.00107
281.00 0.00121
281.50 0.00133
282.00 0.00146
282.50 0.00159
283.00 0.00171
283.50 0.00189
284.00 0.00216
284.50 0.00242
285.00 0.00269
285.50 0.00296
286.00 0.00323
286.50 0.00350
287.00 0.00396
287.50 0.00450
288.00 0.00503
288.50 0.00557
289.00 0.00611
289.50 0.00664
290.00 0.00718
290.50 0.00799
291.00 0.00906
291.50 0.01013
292.00 0.01117
292.50 0.01221
293.00 0.01343
293.50 0.01525
294.00 0.01707
294.50 0.01890
295.00 0.02072
295.50 0.02255
296.00 0.02512
296.50 0.02836
297.00 0.03172
297.50 0.03509
298.00 0.03845
298.50 0.04181
299.00 0.04754
299.50 0.05416
300.00 0.06078
300.50 0.06740
301.00 0.07402
301.50 0.08064
302.00 0.08854
302.50 0.10078
303.00 0.11318
303.50 0.12558
304.00 0.13797
304.50 0.15036
305.00 0.16275
305.50 0.18190
306.00 0.20205
306.50 0.22214
307.00 0.24218
307.50 0.26424
308.00 0.29392
308.50 0.32228
309.00 0.34779
309.50 0.37320
310.00 0.39850
310.50 0.42798
311.00 0.45934
311.50 0.48554
312.00 0.51183
312.50 0.53965
313.00 0.56885
313.50 0.59673
314.00 0.62061
314.50 0.64431
315.00 0.66943
315.50 0.69208
316.00 0.71492
316.50 0.73761
317.00 0.75750
317.50 0.77450
318.00 0.79137
318.50 0.81146
319.00 0.82645
319.50 0.84136
320.00 0.85600
320.50 0.86971
321.00 0.88320
321.50 0.89647
322.00 0.90965
322.50 0.92049
323.00 0.92690
323.50 0.93327
324.00 0.94436
324.50 0.95611
325.00 0.96787
325.50 0.97965
326.00 0.99144
326.50 1.00025
327.00 1.00778
327.50 1.01535
328.00 1.02559
328.50 1.03775
329.00 1.04994
329.50 1.06218
330.00 1.07446
330.50 1.08584
331.00 1.09659
331.50 1.10828
332.00 1.12187
332.50 1.13474
333.00 1.14704
333.50 1.15939
334.00 1.17178
334.50 1.18421
335.00 1.19702
335.50 1.20963
336.00 1.22082
336.50 1.23180
337.00 1.24281
337.50 1.25383
338.00 1.26405
338.50 1.27172
339.00 1.27943
339.50 1.28715
340.00 1.29320
340.50 1.29927
341.00 1.30536
341.50 1.31083
342.00 1.31207
342.50 1.31336
343.00 1.31470
343.50 1.31605
344.00 1.31740
344.50 1.31879
345.00 1.32024
345.50 1.32122
346.00 1.32085
346.50 1.32056
347.00 1.32017
347.50 1.31861
348.00 1.31711
348.50 1.31655
349.00 1.31624
349.50 1.31601
350.00 1.31586
350.50 1.31579
351.00 1.31579
351.50 1.31501
352.00 1.31422
352.50 1.31340
353.00 1.31265
353.50 1.31238
354.00 1.31220
354.50 1.31213
355.00 1.31215
355.50 1.31196
356.00 1.31146
356.50 1.31105
357.00 1.31074
357.50 1.31054
358.00 1.31041
358.50 1.31038
359.00 1.31045
359.50 1.31062
360.00 1.31089
