phi[deg] B[T]
0.00 1.40044
0.50 1.39996
1.00 1.39963
1.50 1.39980
2.00 1.40008
2.50 1.39980
3.00 1.39944
3.50 1.39921
4.00 1.39936
4.50 1.39960
5.00 1.39901
5.50 1.39853
6.00 1.39815
6.50 1.39793
7.00 1.39813
7.50 1.39842
8.00 1.39886
8.50 1.39918
9.00 1.39916
9.50 1.39850
10.00 1.39793
10.50 1.39744
11.00 1.39704
11.50 1.39671
12.00 1.39647
12.50 1.39631
13.00 1.39663
13.50 1.39752
14.00 1.39745
14.50 1.39693
15.00 1.39641
15.50 1.39411
16.00 1.39185
16.50 1.38965
17.00 1.38751
17.50 1.38542
18.00 1.38261
18.50 1.37933
19.00 1.37612
19.50 1.37195
20.00 1.36566
20.50 1.35941
21.00 1.35321
21.50 1.34704
22.00 1.34092
22.50 1.33528
23.00 1.32982
23.50 1.32364
24.00 1.31686
24.50 1.30830
25.00 1.29976
25.50 1.29124
26.00 1.28274
26.50 1.27426
27.00 1.26580
27.50 1.25852
28.00 1.25308
28.50 1.24821
29.00 1.24368
29.50 1.23327
30.00 1.22112
30.50 1.20891
31.00 1.19665
31.50 1.18433
32.00 1.17196
32.50 1.16260
33.00 1.15870
33.50 1.14791
34.00 1.13345
34.50 1.11410
35.00 1.09454
35.50 1.07478
36.00 1.05482
36.50 1.03466
37.00 1.01540
37.50 0.99747
38.00 0.97042
38.50 0.94049
39.00 0.91034
39.50 0.88113
40.00 0.85176
40.50 0.82147
41.00 0.78481
41.50 0.74795
42.00 0.71222
42.50 0.67902
43.00 0.64295
43.50 0.60156
44.00 0.56204
44.50 0.52764
45.00 0.49311
45.50 0.45985
46.00 0.42647
46.50 0.39146
47.00 0.35615
47.50 0.32523
48.00 0.29763
48.50 0.26994
49.00 0.24377
49.50 0.21926
50.00 0.19811
50.50 0.18269
51.00 0.16709
51.50 0.15096
52.00 0.13482
52.50 0.11869
53.00 0.10806
53.50 0.09818
54.00 0.08886
54.50 0.08127
55.00 0.07369
55.50 0.06612
56.00 0.05856
56.50 0.05175
57.00 0.04707
57.50 0.04239
58.00 0.03769
58.50 0.03408
59.00 0.03111
59.50 0.02814
60.00 0.02518
60.50 0.02246
61.00 0.02020
61.50 0.01794
62.00 0.01614
62.50 0.01496
63.00 0.01378
63.50 0.01260
64.00 0.01143
64.50 0.01026
65.00 0.00908
65.50 0.00788
66.00 0.00707
66.50 0.00657
67.00 0.00606
67.50 0.00555
68.00 0.00505
68.50 0.00454
69.00 0.00403
69.50 0.00352
70.00 0.00302
70.50 0.00279
71.00 0.00255
71.50 0.00233
72.00 0.00211
72.50 0.00189
73.00 0.00171
73.50 0.00158
74.00 0.00146
74.50 0.00133
75.00 0.00121
75.50 0.00109
76.00 0.00096
76.50 0.00087
77.00 0.00081
77.50 0.00075
78.00 0.00070
78.50 0.00064
79.00 0.00058
79.50 0.00052
80.00 0.00046
80.50 0.00042
81.00 0.00039
81.50 0.00036
82.00 0.00033
82.50 0.00030
83.00 0.00027
83.50 0.00025
84.00 0.00023
84.50 0.00022
85.00 0.00020
85.50 0.00018
86.00 0.00016
86.50 0.00015
87.00 0.00014
87.50 0.00013
88.00 0.00012
88.50 0.00011
89.00 0.00011
89.50 0.00010
90.00 0.00010
90.00 0.00010
90.50 0.00010
91.00 0.00011
91.50 0.00011
92.00 0.00012
92.50 0.00013
93.00 0.00014
93.50 0.00015
94.00 0.00016
94.50 0.00018
95.00 0.00020
95.50 0.00022
96.00 0.00023
96.50 0.00025
97.00 0.00027
97.50 0.00030
98.00 0.00033
98.50 0.00036
99.00 0.00039
99.50 0.00042
100.00 0.00046
100.50 0.00052
101.00 0.00058
101.50 0.00064
102.00 0.00070
102.50 0.00075
103.00 0.00081
103.50 0.00087
104.00 0.00096
104.50 0.00109
105.00 0.00121
105.50 0.00133
106.00 0.00146
106.50 0.00158
107.00 0.00171
107.50 0.00189
108.00 0.00211
108.50 0.00233
109.00 0.00255
109.50 0.00279
110.00 0.00302
110.50 0.00352
111.00 0.00403
111.50 0.00454
112.00 0.00505
112.50 0.00555
113.00 0.00606
113.50 0.00657
114.00 0.00707
114.50 0.00788
115.00 0.00908
115.50 0.01026
116.00 0.01143
116.50 0.01260
117.00 0.01378
117.50 0.01496
118.00 0.01614
118.50 0.01794
119.00 0.02020
119.50 0.02246
120.00 0.02518
120.50 0.02814
121.00 0.03111
121.50 0.03408
122.00 0.03769
122.50 0.04239
123.00 0.04707
123.50 0.05175
124.00 0.05856
124.50 0.06612
125.00 0.07369
125.50 0.08127
126.00 0.08886
126.50 0.09818
127.00 0.10806
127.50 0.11869
128.00 0.13482
128.50 0.15096
129.00 0.16709
129.50 0.18269
130.00 0.19811
130.50 0.21926
131.00 0.24377
131.50 0.26994
132.00 0.29763
132.50 0.32523
133.00 0.35615
133.50 0.39146
134.00 0.42647
134.50 0.45985
135.00 0.49311
135.50 0.52764
136.00 0.56204
136.50 0.60156
137.00 0.64295
137.50 0.67902
138.00 0.71222
138.50 0.74795
139.00 0.78481
139.50 0.82147
140.00 0.85176
140.50 0.88113
141.00 0.91034
141.50 0.94049
142.00 0.97042
142.50 0.99747
143.00 1.01540
143.50 1.03466
144.00 1.05482
144.50 1.07478
145.00 1.09454
145.50 1.11410
146.00 1.13345
146.50 1.14791
147.00 1.15870
147.50 1.16260
148.00 1.17196
148.50 1.18433
149.00 1.19665
149.50 1.20891
150.00 1.22112
150.50 1.23327
151.00 1.24368
151.50 1.24821
152.00 1.25308
152.50 1.25852
153.00 1.26580
153.50 1.27426
154.00 1.28274
154.50 1.29124
155.00 1.29976
155.50 1.30830
156.00 1.31686
156.50 1.32364
157.00 1.32982
157.50 1.33528
158.00 1.34092
158.50 1.34704
159.00 1.35321
159.50 1.35941
160.00 1.36566
160.50 1.37195
161.00 1.37612
161.50 1.37933
162.00 1.38261
162.50 1.38542
163.00 1.38751
163.50 1.38965
164.00 1.39185
164.50 1.39411
165.00 1.39641
165.50 1.39693
166.00 1.39745
166.50 1.39752
167.00 1.39663
167.50 1.39631
168.00 1.39647
168.50 1.39671
169.00 1.39704
169.50 1.39744
170.00 1.39793
170.50 1.39850
171.00 1.39916
171.50 1.39918
172.00 1.39886
172.50 1.39842
173.00 1.39813
173.50 1.39793
174.00 1.39815
174.50 1.39853
175.00 1.39901
175.50 1.39960
176.00 1.39936
176.50 1.39921
177.00 1.39944
177.50 1.39980
178.00 1.40008
178.50 1.39980
179.00 1.39963
179.50 1.39996
180.00 1.40044
180.00 1.40044
180.50 1.39996
181.00 1.39963
181.50 1.39980
182.00 1.40008
182.50 1.39980
183.00 1.39944
183.50 1.39921
184.00 1.39936
184.50 1.39960
185.00 1.39901
185.50 1.39853
186.00 1.39815
186.50 1.39793
187.00 1.39813
187.50 1.39842
188.00 1.39886
188.50 1.39918
189.00 1.39916
189.50 1.39850
190.00 1.39793
190.50 1.39744
191.00 1.39704
191.50 1.39671
192.00 1.39647
192.50 1.39631
193.00 1.39663
193.50 1.39752
194.00 1.39745
194.50 1.39693
195.00 1.39641
195.50 1.39411
196.00 1.39185
196.50 1.38965
197.00 1.38751
197.50 1.38542
198.00 1.38261
198.50 1.37933
199.00 1.37612
199.50 1.37195
200.00 1.36566
200.50 1.35941
201.00 1.35321
201.50 1.34704
202.00 1.34092
202.50 1.33528
203.00 1.32982
203.50 1.32364
204.00 1.31686
204.50 1.30830
205.00 1.29976
205.50 1.29124
206.00 1.28274
206.50 1.27426
207.00 1.26580
207.50 1.25852
208.00 1.25308
208.50 1.24821
209.00 1.24368
209.50 1.23327
210.00 1.22112
210.50 1.20891
211.00 1.19665
211.50 1.18433
212.00 1.17196
212.50 1.16260
213.00 1.15870
213.50 1.14791
214.00 1.13345
214.50 1.11410
215.00 1.09454
215.50 1.07478
216.00 1.05482
216.50 1.03466
217.00 1.01540
217.50 0.99747
218.00 0.97042
218.50 0.94049
219.00 0.91034
219.50 0.88113
220.00 0.85176
220.50 0.82147
221.00 0.78481
221.50 0.74795
222.00 0.71222
222.50 0.67902
223.00 0.64295
223.50 0.60156
224.00 0.56204
224.50 0.52764
225.00 0.49311
225.50 0.45985
226.00 0.42647
226.50 0.39146
227.00 0.35615
227.50 0.32523
228.00 0.29763
228.50 0.26994
229.00 0.24377
229.50 0.21926
230.00 0.19811
230.50 0.18269
231.00 0.16709
231.50 0.15096
232.00 0.13482
232.50 0.11869
233.00 0.10806
233.50 0.09818
234.00 0.08886
234.50 0.08127
235.00 0.07369
235.50 0.06612
236.00 0.05856
236.50 0.05175
237.00 0.04707
237.50 0.04239
238.00 0.03769
238.50 0.03408
239.00 0.03111
239.50 0.02814
240.00 0.02518
240.50 0.02246
241.00 0.02020
241.50 0.01794
242.00 0.01614
242.50 0.01496
243.00 0.01378
243.50 0.01260
244.00 0.01143
244.50 0.01026
245.00 0.00908
245.50 0.00788
246.00 0.00707
246.50 0.00657
247.00 0.00606
247.50 0.00555
248.00 0.00505
248.50 0.00454
249.00 0.00403
249.50 0.00352
250.00 0.00302
250.50 0.00279
251.00 0.00255
251.50 0.00233
252.00 0.00211
252.50 0.00189
253.00 0.00171
253.50 0.00158
254.00 0.00146
254.50 0.00133
255.00 0.00121
255.50 0.00109
256.00 0.00096
256.50 0.00087
257.00 0.00081
257.50 0.00075
258.00 0.00070
258.50 0.00064
259.00 0.00058
259.50 0.00052
260.00 0.00046
260.50 0.00042
261.00 0.00039
261.50 0.00036
262.00 0.00033
262.50 0.00030
263.00 0.00027
263.50 0.00025
264.00 0.00023
264.50 0.00022
265.00 0.00020
265.50 0.00018
266.00 0.00016
266.50 0.00015
267.00 0.00014
267.50 0.00013
268.00 0.00012
268.50 0.00011
269.00 0.00011
269.50 0.00010
270.00 0.00010
270.00 0.00010
270.50 0.00010
271.00 0.00011
271.50 0.00011
272.00 0.00012
272.50 0.00013
273.00 0.00014
273.50 0.00015
274.00 0.00016
274.50 0.00018
275.00 0.00020
275.50 0.00022
276.00 0.00023
276.50 0.00025
277.00 0.00027
277.50 0.00030
278.00 0.00033
278.50 0.00036
279.00 0.00039
279.50 0.00042
280.00 0.00046
280.50 0.00052
281.00 0.00058
281.50 0.00064
282.00 0.00070
282.50 0.00075
283.00 0.00081
283.50 0.00087
284.00 0.00096
284.50 0.00109
285.00 0.00121
285.50 0.00133
286.00 0.00146
286.50 0.00158
287.00 0.00171
287.50 0.00189
288.00 0.00211
288.50 0.00233
289.00 0.00255
289.50 0.00279
290.00 0.00302
290.50 0.00352
291.00 0.00403
291.50 0.00454
292.00 0.00505
292.50 0.00555
293.00 0.00606
293.50 0.00657
294.00 0.00707
294.50 0.00788
295.00 0.00908
295.50 0.01026
296.00 0.01143
296.50 0.01260
297.00 0.01378
297.50 0.01496
298.00 0.01614
298.50 0.01794
299.00 0.02020
299.50 0.02246
300.00 0.02518
300.50 0.02814
301.00 0.03111
301.50 0.03408
302.00 0.03769
302.50 0.04239
303.00 0.04707
303.50 0.05175
304.00 0.05856
304.50 0.06612
305.00 0.07369
305.50 0.08127
306.00 0.08886
306.50 0.09818
307.00 0.10806
307.50 0.11869
308.00 0.13482
308.50 0.15096
309.00 0.16709
309.50 0.18269
310.00 0.19811
310.50 0.21926
311.00 0.24377
311.50 0.26994
312.00 0.29763
312.50 0.32523
313.00 0.35615
313.50 0.39146
314.00 0.42647
314.50 0.45985
315.00 0.49311
315.50 0.52764
316.00 0.56204
316.50 0.60156
317.00 0.64295
317.50 0.67902
318.00 0.71222
318.50 0.74795
319.00 0.78481
319.50 0.82147
320.00 0.85176
320.50 0.88113
321.00 0.91034
321.50 0.94049
322.00 0.97042
322.50 0.99747
323.00 1.01540
323.50 1.03466
324.00 1.05482
324.50 1.07478
325.00 1.09454
325.50 1.11410
326.00 1.13345
326.50 1.14791
327.00 1.15870
327.50 1.16260
328.00 1.17196
328.50 1.18433
329.00 1.19665
329.50 1.20891
330.00 1.22112
330.50 1.23327
331.00 1.24368
331.50 1.24821
332.00 1.25308
332.50 1.25852
333.00 1.26580
333.50 1.27426
334.00 1.28274
334.50 1.29124
335.00 1.29976
335.50 1.30830
336.00 1.31686
336.50 1.32364
337.00 1.32982
337.50 1.33528
338.00 1.34092
338.50 1.34704
339.00 1.35321
339.50 1.35941
340.00 1.36566
340.50 1.37195
341.00 1.37612
341.50 1.37933
342.00 1.38261
342.50 1.38542
343.00 1.38751
343.50 1.38965
344.00 1.39185
344.50 1.39411
345.00 1.39641
345.50 1.39693
346.00 1.39745
346.50 1.39752
347.00 1.39663
347.50 1.39631
348.00 1.39647
348.50 1.39671
349.00 1.39704
349.50 1.39744
350.00 1.39793
350.50 1.39850
351.00 1.39916
351.50 1.39918
352.00 1.39886
352.50 1.39842
353.00 1.39813
353.50 1.39793
354.00 1.39815
354.50 1.39853
355.00 1.39901
355.50 1.39960
356.00 1.39936
356.50 1.39921
357.00 1.39944
357.50 1.39980
358.00 1.40008
358.50 1.39980
359.00 1.39963
359.50 1.39996
360.00 1.40044
