phi[deg] B[T]
0.00 1.50113
0.50 1.50043
1.00 1.50030
1.50 1.50023
2.00 1.49969
2.50 1.49892
3.00 1.49766
3.50 1.49646
4.00 1.49556
4.50 1.49467
5.00 1.49138
5.50 1.48814
6.00 1.48598
6.50 1.48452
7.00 1.48231
7.50 1.47765
8.00 1.47301
8.50 1.46841
9.00 1.46384
9.50 1.45779
10.00 1.45028
10.50 1.44357
11.00 1.43682
11.50 1.43004
12.00 1.42336
12.50 1.41701
13.00 1.40483
13.50 1.39193
14.00 1.37897
14.50 1.36582
15.00 1.35085
15.50 1.33592
16.00 1.32087
16.50 1.30572
17.00 1.29290
17.50 1.27421
18.00 1.25196
18.50 1.22954
19.00 1.20721
19.50 1.18561
20.00 1.15807
20.50 1.13377
21.00 1.10927
21.50 1.08455
22.00 1.05922
22.50 1.02888
23.00 0.99569
23.50 0.96228
24.00 0.92864
24.50 0.89559
25.00 0.86210
25.50 0.82833
26.00 0.79431
26.50 0.75762
27.00 0.71817
27.50 0.68008
28.00 0.64178
28.50 0.60327
29.00 0.56444
29.50 0.52188
30.00 0.48898
30.50 0.45650
31.00 0.42388
31.50 0.39112
32.00 0.35810
32.50 0.31953
33.00 0.28931
33.50 0.26350
34.00 0.24406
34.50 0.22463
35.00 0.20520
35.50 0.18577
36.00 0.16635
36.50 0.14694
37.00 0.13091
37.50 0.11625
38.00 0.10566
38.50 0.09672
39.00 0.08778
39.50 0.07870
40.00 0.06940
40.50 0.06245
41.00 0.05701
41.50 0.05158
42.00 0.04601
42.50 0.04052
43.00 0.03727
43.50 0.03396
44.00 0.03064
44.50 0.02733
45.00 0.02401
45.50 0.02205
46.00 0.02009
46.50 0.01813
47.00 0.01617
47.50 0.01421
48.00 0.01305
48.50 0.01194
49.00 0.01083
49.50 0.00972
50.00 0.00861
50.50 0.00771
51.00 0.00693
51.50 0.00629
52.00 0.00578
52.50 0.00528
53.00 0.00477
53.50 0.00427
54.00 0.00379
54.50 0.00333
55.00 0.00308
55.50 0.00286
56.00 0.00264
56.50 0.00241
57.00 0.00219
57.50 0.00197
58.00 0.00174
58.50 0.00156
59.00 0.00146
59.50 0.00136
60.00 0.00126
60.50 0.00116
61.00 0.00106
61.50 0.00095
62.00 0.00085
62.50 0.00078
63.00 0.00074
63.50 0.00070
64.00 0.00066
64.50 0.00062
65.00 0.00058
65.50 0.00054
66.00 0.00050
66.50 0.00047
67.00 0.00045
67.50 0.00043
68.00 0.00042
68.50 0.00040
69.00 0.00038
69.50 0.00036
70.00 0.00035
70.50 0.00034
71.00 0.00033
71.50 0.00032
72.00 0.00030
72.50 0.00029
73.00 0.00028
73.50 0.00027
74.00 0.00026
74.50 0.00026
75.00 0.00025
75.50 0.00024
76.00 0.00023
76.50 0.00022
77.00 0.00021
77.50 0.00020
78.00 0.00020
78.50 0.00019
79.00 0.00018
79.50 0.00017
80.00 0.00016
80.50 0.00015
81.00 0.00015
81.50 0.00014
82.00 0.00013
82.50 0.00012
83.00 0.00012
83.50 0.00011
84.00 0.00010
84.50 0.00009
85.00 0.00008
85.50 0.00008
86.00 0.00007
86.50 0.00006
87.00 0.00005
87.50 0.00004
88.00 0.00004
88.50 0.00003
89.00 0.00003
89.50 0.00003
90.00 0.00002
90.00 0.00002
90.50 0.00003
91.00 0.00003
91.50 0.00003
92.00 0.00004
92.50 0.00004
93.00 0.00005
93.50 0.00006
94.00 0.00007
94.50 0.00008
95.00 0.00008
95.50 0.00009
96.00 0.00010
96.50 0.00011
97.00 0.00012
97.50 0.00012
98.00 0.00013
98.50 0.00014
99.00 0.00015
99.50 0.00015
100.00 0.00016
100.50 0.00017
101.00 0.00018
101.50 0.00019
102.00 0.00020
102.50 0.00020
103.00 0.00021
103.50 0.00022
104.00 0.00023
104.50 0.00024
105.00 0.00025
105.50 0.00026
106.00 0.00026
106.50 0.00027
107.00 0.00028
107.50 0.00029
108.00 0.00030
108.50 0.00032
109.00 0.00033
109.50 0.00034
110.00 0.00035
110.50 0.00036
111.00 0.00038
111.50 0.00040
112.00 0.00042
112.50 0.00043
113.00 0.00045
113.50 0.00047
114.00 0.00050
114.50 0.00054
115.00 0.00058
115.50 0.00062
116.00 0.00066
116.50 0.00070
117.00 0.00074
117.50 0.00078
118.00 0.00085
118.50 0.00095
119.00 0.00106
119.50 0.00116
120.00 0.00126
120.50 0.00136
121.00 0.00146
121.50 0.00156
122.00 0.00174
122.50 0.00197
123.00 0.00219
123.50 0.00241
124.00 0.00264
124.50 0.00286
125.00 0.00308
125.50 0.00333
126.00 0.00379
126.50 0.00427
127.00 0.00477
127.50 0.00528
128.00 0.00578
128.50 0.00629
129.00 0.00693
129.50 0.00771
130.00 0.00861
130.50 0.00972
131.00 0.01083
131.50 0.01194
132.00 0.01305
132.50 0.01421
133.00 0.01617
133.50 0.01813
134.00 0.02009
134.50 0.02205
135.00 0.02401
135.50 0.02733
136.00 0.03064
136.50 0.03396
137.00 0.03727
137.50 0.04052
138.00 0.04601
138.50 0.05158
139.00 0.05701
139.50 0.06245
140.00 0.06940
140.50 0.07870
141.00 0.08778
141.50 0.09672
142.00 0.10566
142.50 0.11625
143.00 0.13091
143.50 0.14694
144.00 0.16635
144.50 0.18577
145.00 0.20520
145.50 0.22463
146.00 0.24406
146.50 0.26350
147.00 0.28931
147.50 0.31953
148.00 0.35810
148.50 0.39112
149.00 0.42388
149.50 0.45650
150.00 0.48898
150.50 0.52188
151.00 0.56444
151.50 0.60327
152.00 0.64178
152.50 0.68008
153.00 0.71817
153.50 0.75762
154.00 0.79431
154.50 0.82833
155.00 0.86210
155.50 0.89559
156.00 0.92864
156.50 0.96228
157.00 0.99569
157.50 1.02888
158.00 1.05922
158.50 1.08455
159.00 1.10927
159.50 1.13377
160.00 1.15807
160.50 1.18561
161.00 1.20721
161.50 1.22954
162.00 1.25196
162.50 1.27421
163.00 1.29290
163.50 1.30572
164.00 1.32087
164.50 1.33592
165.00 1.35085
165.50 1.36582
166.00 1.37897
166.50 1.39193
167.00 1.40483
167.50 1.41701
168.00 1.42336
168.50 1.43004
169.00 1.43682
169.50 1.44357
170.00 1.45028
170.50 1.45779
171.00 1.46384
171.50 1.46841
172.00 1.47301
172.50 1.47765
173.00 1.48231
173.50 1.48452
174.00 1.48598
174.50 1.48814
175.00 1.49138
175.50 1.49467
176.00 1.49556
176.50 1.49646
177.00 1.49766
177.50 1.49892
178.00 1.49969
178.50 1.50023
179.00 1.50030
179.50 1.50043
180.00 1.50113
180.00 1.50113
180.50 1.50043
181.00 1.50030
181.50 1.50023
182.00 1.49969
182.50 1.49892
183.00 1.49766
183.50 1.49646
184.00 1.49556
184.50 1.49467
185.00 1.49138
185.50 1.48814
186.00 1.48598
186.50 1.48452
187.00 1.48231
187.50 1.47765
188.00 1.47301
188.50 1.46841
189.00 1.46384
189.50 1.45779
190.00 1.45028
190.50 1.44357
191.00 1.43682
191.50 1.43004
192.00 1.42336
192.50 1.41701
193.00 1.40483
193.50 1.39193
194.00 1.37897
194.50 1.36582
195.00 1.35085
195.50 1.33592
196.00 1.32087
196.50 1.30572
197.00 1.29290
197.50 1.27421
198.00 1.25196
198.50 1.22954
199.00 1.20721
199.50 1.18561
200.00 1.15807
200.50 1.13377
201.00 1.10927
201.50 1.08455
202.00 1.05922
202.50 1.02888
203.00 0.99569
203.50 0.96228
204.00 0.92864
204.50 0.89559
205.00 0.86210
205.50 0.82833
206.00 0.79431
206.50 0.75762
207.00 0.71817
207.50 0.68008
208.00 0.64178
208.50 0.60327
209.00 0.56444
209.50 0.52188
210.00 0.48898
210.50 0.45650
211.00 0.42388
211.50 0.39112
212.00 0.35810
212.50 0.31953
213.00 0.28931
213.50 0.26350
214.00 0.24406
214.50 0.22463
215.00 0.20520
215.50 0.18577
216.00 0.16635
216.50 0.14694
217.00 0.13091
217.50 0.11625
218.00 0.10566
218.50 0.09672
219.00 0.08778
219.50 0.07870
220.00 0.06940
220.50 0.06245
221.00 0.05701
221.50 0.05158
222.00 0.04601
222.50 0.04052
223.00 0.03727
223.50 0.03396
224.00 0.03064
224.50 0.02733
225.00 0.02401
225.50 0.02205
226.00 0.02009
226.50 0.01813
227.00 0.01617
227.50 0.01421
228.00 0.01305
228.50 0.01194
229.00 0.01083
229.50 0.00972
230.00 0.00861
230.50 0.00771
231.00 0.00693
231.50 0.00629
232.00 0.00578
232.50 0.00528
233.00 0.00477
233.50 0.00427
234.00 0.00379
234.50 0.00333
235.00 0.00308
235.50 0.00286
236.00 0.00264
236.50 0.00241
237.00 0.00219
237.50 0.00197
238.00 0.00174
238.50 0.00156
239.00 0.00146
239.50 0.00136
240.00 0.00126
240.50 0.00116
241.00 0.00106
241.50 0.00095
242.00 0.00085
242.50 0.00078
243.00 0.00074
243.50 0.00070
244.00 0.00066
244.50 0.00062
245.00 0.00058
245.50 0.00054
246.00 0.00050
246.50 0.00047
247.00 0.00045
247.50 0.00043
248.00 0.00042
248.50 0.00040
249.00 0.00038
249.50 0.00036
250.00 0.00035
250.50 0.00034
251.00 0.00033
251.50 0.00032
252.00 0.00030
252.50 0.00029
253.00 0.00028
253.50 0.00027
254.00 0.00026
254.50 0.00026
255.00 0.00025
255.50 0.00024
256.00 0.00023
256.50 0.00022
257.00 0.00021
257.50 0.00020
258.00 0.00020
258.50 0.00019
259.00 0.00018
259.50 0.00017
260.00 0.00016
260.50 0.00015
261.00 0.00015
261.50 0.00014
262.00 0.00013
262.50 0.00012
263.00 0.00012
263.50 0.00011
264.00 0.00010
264.50 0.00009
265.00 0.00008
265.50 0.00008
266.00 0.00007
266.50 0.00006
267.00 0.00005
267.50 0.00004
268.00 0.00004
268.50 0.00003
269.00 0.00003
269.50 0.00003
270.00 0.00002
270.00 0.00002
270.50 0.00003
271.00 0.00003
271.50 0.00003
272.00 0.00004
272.50 0.00004
273.00 0.00005
273.50 0.00006
274.00 0.00007
274.50 0.00008
275.00 0.00008
275.50 0.00009
276.00 0.00010
276.50 0.00011
277.00 0.00012
277.50 0.00012
278.00 0.00013
278.50 0.00014
279.00 0.00015
279.50 0.00015
280.00 0.00016
280.50 0.00017
281.00 0.00018
281.50 0.00019
282.00 0.00020
282.50 0.00020
283.00 0.00021
283.50 0.00022
284.00 0.00023
284.50 0.00024
285.00 0.00025
285.50 0.00026
286.00 0.00026
286.50 0.00027
287.00 0.00028
287.50 0.00029
288.00 0.00030
288.50 0.00032
289.00 0.00033
289.50 0.00034
290.00 0.00035
290.50 0.00036
291.00 0.00038
291.50 0.00040
292.00 0.00042
292.50 0.00043
293.00 0.00045
293.50 0.00047
294.00 0.00050
294.50 0.00054
295.00 0.00058
295.50 0.00062
296.00 0.00066
296.50 0.00070
297.00 0.00074
297.50 0.00078
298.00 0.00085
298.50 0.00095
299.00 0.00106
299.50 0.00116
300.00 0.00126
300.50 0.00136
301.00 0.00146
301.50 0.00156
302.00 0.00174
302.50 0.00197
303.00 0.00219
303.50 0.00241
304.00 0.00264
304.50 0.00286
305.00 0.00308
305.50 0.00333
306.00 0.00379
306.50 0.00427
307.00 0.00477
307.50 0.00528
308.00 0.00578
308.50 0.00629
309.00 0.00693
309.50 0.00771
310.00 0.00861
310.50 0.00972
311.00 0.01083
311.50 0.01194
312.00 0.01305
312.50 0.01421
313.00 0.01617
313.50 0.01813
314.00 0.02009
314.50 0.02205
315.00 0.02401
315.50 0.02733
316.00 0.03064
316.50 0.03396
317.00 0.03727
317.50 0.04052
318.00 0.04601
318.50 0.05158
319.00 0.05701
319.50 0.06245
320.00 0.06940
320.50 0.07870
321.00 0.08778
321.50 0.09672
322.00 0.10566
322.50 0.11625
323.00 0.13091
323.50 0.14694
324.00 0.16635
324.50 0.18577
325.00 0.20520
325.50 0.22463
326.00 0.24406
326.50 0.26350
327.00 0.28931
327.50 0.31953
328.00 0.35810
328.50 0.39112
329.00 0.42388
329.50 0.45650
330.00 0.48898
330.50 0.52188
331.00 0.56444
331.50 0.60327
332.00 0.64178
332.50 0.68008
333.00 0.71817
333.50 0.75762
334.00 0.79431
334.50 0.82833
335.00 0.86210
335.50 0.89559
336.00 0.92864
336.50 0.96228
337.00 0.99569
337.50 1.02888
338.00 1.05922
338.50 1.08455
339.00 1.10927
339.50 1.13377
340.00 1.15807
340.50 1.18561
341.00 1.20721
341.50 1.22954
342.00 1.25196
342.50 1.27421
343.00 1.29290
343.50 1.30572
344.00 1.32087
344.50 1.33592
345.00 1.35085
345.50 1.36582
346.00 1.37897
346.50 1.39193
347.00 1.40483
347.50 1.41701
348.00 1.42336
348.50 1.43004
349.00 1.43682
349.50 1.44357
350.00 1.45028
350.50 1.45779
351.00 1.46384
351.50 1.46841
352.00 1.47301
352.50 1.47765
353.00 1.48231
353.50 1.48452
354.00 1.48598
354.50 1.48814
355.00 1.49138
355.50 1.49467
356.00 1.49556
356.50 1.49646
357.00 1.49766
357.50 1.49892
358.00 1.49969
358.50 1.50023
359.00 1.50030
359.50 1.50043
360.00 1.50113
