phi[deg] B[T]
0.00 1.25521
0.50 1.25514
1.00 1.25516
1.50 1.25526
2.00 1.25515
2.50 1.25487
3.00 1.25459
3.50 1.25433
4.00 1.25418
4.50 1.25411
5.00 1.25339
5.50 1.25249
6.00 1.25166
6.50 1.25092
7.00 1.25025
7.50 1.25008
8.00 1.25004
8.50 1.24923
9.00 1.24785
9.50 1.24653
10.00 1.24528
10.50 1.24409
11.00 1.24296
11.50 1.24203
12.00 1.24189
12.50 1.24172
13.00 1.23928
13.50 1.23688
14.00 1.23454
14.50 1.23225
15.00 1.23058
15.50 1.22772
16.00 1.22490
16.50 1.22212
17.00 1.21957
17.50 1.21706
18.00 1.21450
18.50 1.20756
19.00 1.20168
19.50 1.19581
20.00 1.19039
20.50 1.18519
21.00 1.17994
21.50 1.17463
22.00 1.17031
22.50 1.16134
23.00 1.15050
23.50 1.13955
24.00 1.12849
24.50 1.11731
25.00 1.10533
25.50 1.09222
26.00 1.07894
26.50 1.06550
27.00 1.04573
27.50 1.02307
28.00 1.00024
28.50 0.97836
29.00 0.95989
29.50 0.93252
30.00 0.90487
30.50 0.87694
31.00 0.84874
31.50 0.82306
32.00 0.78565
32.50 0.74775
33.00 0.70955
33.50 0.67359
34.00 0.64090
34.50 0.60466
35.00 0.56771
35.50 0.53063
36.00 0.49343
36.50 0.45694
37.00 0.42041
37.50 0.38565
38.00 0.35769
38.50 0.32986
39.00 0.30200
39.50 0.27409
40.00 0.24615
40.50 0.21869
41.00 0.20138
41.50 0.18404
42.00 0.16639
42.50 0.14785
43.00 0.13178
43.50 0.12044
44.00 0.10911
44.50 0.09782
45.00 0.08653
45.50 0.07926
46.00 0.07199
46.50 0.06461
47.00 0.05723
47.50 0.05170
48.00 0.04728
48.50 0.04285
49.00 0.03841
49.50 0.03394
50.00 0.03042
50.50 0.02766
51.00 0.02506
51.50 0.02246
52.00 0.01986
52.50 0.01825
53.00 0.01683
53.50 0.01542
54.00 0.01400
54.50 0.01258
55.00 0.01113
55.50 0.00966
56.00 0.00868
56.50 0.00798
57.00 0.00733
57.50 0.00669
58.00 0.00605
58.50 0.00540
59.00 0.00476
59.50 0.00423
60.00 0.00387
60.50 0.00352
61.00 0.00317
61.50 0.00285
62.00 0.00256
62.50 0.00228
63.00 0.00207
63.50 0.00192
64.00 0.00177
64.50 0.00162
65.00 0.00147
65.50 0.00131
66.00 0.00116
66.50 0.00106
67.00 0.00099
67.50 0.00092
68.00 0.00085
68.50 0.00078
69.00 0.00071
69.50 0.00064
70.00 0.00058
70.50 0.00055
71.00 0.00052
71.50 0.00049
72.00 0.00046
72.50 0.00043
73.00 0.00039
73.50 0.00036
74.00 0.00034
74.50 0.00033
75.00 0.00031
75.50 0.00030
76.00 0.00028
76.50 0.00026
77.00 0.00025
77.50 0.00023
78.00 0.00022
78.50 0.00021
79.00 0.00020
79.50 0.00019
80.00 0.00018
80.50 0.00017
81.00 0.00016
81.50 0.00015
82.00 0.00014
82.50 0.00013
83.00 0.00012
83.50 0.00011
84.00 0.00011
84.50 0.00010
85.00 0.00009
85.50 0.00008
86.00 0.00007
86.50 0.00006
87.00 0.00005
87.50 0.00004
88.00 0.00004
88.50 0.00003
89.00 0.00003
89.50 0.00003
90.00 0.00003
90.00 0.00003
90.50 0.00003
91.00 0.00003
91.50 0.00003
92.00 0.00004
92.50 0.00004
93.00 0.00005
93.50 0.00006
94.00 0.00007
94.50 0.00008
95.00 0.00009
95.50 0.00010
96.00 0.00011
96.50 0.00011
97.00 0.00012
97.50 0.00013
98.00 0.00014
98.50 0.00015
99.00 0.00016
99.50 0.00017
100.00 0.00018
100.50 0.00019
101.00 0.00020
101.50 0.00021
102.00 0.00022
102.50 0.00023
103.00 0.00025
103.50 0.00026
104.00 0.00028
104.50 0.00030
105.00 0.00031
105.50 0.00033
106.00 0.00034
106.50 0.00036
107.00 0.00039
107.50 0.00043
108.00 0.00046
108.50 0.00049
109.00 0.00052
109.50 0.00055
110.00 0.00058
110.50 0.00064
111.00 0.00071
111.50 0.00078
112.00 0.00085
112.50 0.00092
113.00 0.00099
113.50 0.00106
114.00 0.00116
114.50 0.00131
115.00 0.00147
115.50 0.00162
116.00 0.00177
116.50 0.00192
117.00 0.00207
117.50 0.00228
118.00 0.00256
118.50 0.00285
119.00 0.00317
119.50 0.00352
120.00 0.00387
120.50 0.00423
121.00 0.00476
121.50 0.00540
122.00 0.00605
122.50 0.00669
123.00 0.00733
123.50 0.00798
124.00 0.00868
124.50 0.00966
125.00 0.01113
125.50 0.01258
126.00 0.01400
126.50 0.01542
127.00 0.01683
127.50 0.01825
128.00 0.01986
128.50 0.02246
129.00 0.02506
129.50 0.02766
130.00 0.03042
130.50 0.03394
131.00 0.03841
131.50 0.04285
132.00 0.04728
132.50 0.05170
133.00 0.05723
133.50 0.06461
134.00 0.07199
134.50 0.07926
135.00 0.08653
135.50 0.09782
136.00 0.10911
136.50 0.12044
137.00 0.13178
137.50 0.14785
138.00 0.16639
138.50 0.18404
139.00 0.20138
139.50 0.21869
140.00 0.24615
140.50 0.27409
141.00 0.30200
141.50 0.32986
142.00 0.35769
142.50 0.38565
143.00 0.42041
143.50 0.45694
144.00 0.49343
144.50 0.53063
145.00 0.56771
145.50 0.60466
146.00 0.64090
146.50 0.67359
147.00 0.70955
147.50 0.74775
148.00 0.78565
148.50 0.82306
149.00 0.84874
149.50 0.87694
150.00 0.90487
150.50 0.93252
151.00 0.95989
151.50 0.97836
152.00 1.00024
152.50 1.02307
153.00 1.04573
153.50 1.06550
154.00 1.07894
154.50 1.09222
155.00 1.10533
155.50 1.11731
156.00 1.12849
156.50 1.13955
157.00 1.15050
157.50 1.16134
158.00 1.17031
158.50 1.17463
159.00 1.17994
159.50 1.18519
160.00 1.19039
160.50 1.19581
161.00 1.20168
161.50 1.20756
162.00 1.21450
162.50 1.21706
163.00 1.21957
163.50 1.22212
164.00 1.22490
164.50 1.22772
165.00 1.23058
165.50 1.23225
166.00 1.23454
166.50 1.23688
167.00 1.23928
167.50 1.24172
168.00 1.24189
168.50 1.24203
169.00 1.24296
169.50 1.24409
170.00 1.24528
170.50 1.24653
171.00 1.24785
171.50 1.24923
172.00 1.25004
172.50 1.25008
173.00 1.25025
173.50 1.25092
174.00 1.25166
174.50 1.25249
175.00 1.25339
175.50 1.25411
176.00 1.25418
176.50 1.25433
177.00 1.25459
177.50 1.25487
178.00 1.25515
178.50 1.25526
179.00 1.25516
179.50 1.25514
180.00 1.25521
180.00 1.25521
180.50 1.25514
181.00 1.25516
181.50 1.25526
182.00 1.25515
182.50 1.25487
183.00 1.25459
183.50 1.25433
184.00 1.25418
184.50 1.25411
185.00 1.25339
185.50 1.25249
186.00 1.25166
186.50 1.25092
187.00 1.25025
187.50 1.25008
188.00 1.25004
188.50 1.24923
189.00 1.24785
189.50 1.24653
190.00 1.24528
190.50 1.24409
191.00 1.24296
191.50 1.24203
192.00 1.24189
192.50 1.24172
193.00 1.23928
193.50 1.23688
194.00 1.23454
194.50 1.23225
195.00 1.23058
195.50 1.22772
196.00 1.22490
196.50 1.22212
197.00 1.21957
197.50 1.21706
198.00 1.21450
198.50 1.20756
199.00 1.20168
199.50 1.19581
200.00 1.19039
200.50 1.18519
201.00 1.17994
201.50 1.17463
202.00 1.17031
202.50 1.16134
203.00 1.15050
203.50 1.13955
204.00 1.12849
204.50 1.11731
205.00 1.10533
205.50 1.09222
206.00 1.07894
206.50 1.06550
207.00 1.04573
207.50 1.02307
208.00 1.00024
208.50 0.97836
209.00 0.95989
209.50 0.93252
210.00 0.90487
210.50 0.87694
211.00 0.84874
211.50 0.82306
212.00 0.78565
212.50 0.74775
213.00 0.70955
213.50 0.67359
214.00 0.64090
214.50 0.60466
215.00 0.56771
215.50 0.53063
216.00 0.49343
216.50 0.45694
217.00 0.42041
217.50 0.38565
218.00 0.35769
218.50 0.32986
219.00 0.30200
219.50 0.27409
220.00 0.24615
220.50 0.21869
221.00 0.20138
221.50 0.18404
222.00 0.16639
222.50 0.14785
223.00 0.13178
223.50 0.12044
224.00 0.10911
224.50 0.09782
225.00 0.08653
225.50 0.07926
226.00 0.07199
226.50 0.06461
227.00 0.05723
227.50 0.05170
228.00 0.04728
228.50 0.04285
229.00 0.03841
229.50 0.03394
230.00 0.03042
230.50 0.02766
231.00 0.02506
231.50 0.02246
232.00 0.01986
232.50 0.01825
233.00 0.01683
233.50 0.01542
234.00 0.01400
234.50 0.01258
235.00 0.01113
235.50 0.00966
236.00 0.00868
236.50 0.00798
237.00 0.00733
237.50 0.00669
238.00 0.00605
238.50 0.00540
239.00 0.00476
239.50 0.00423
240.00 0.00387
240.50 0.00352
241.00 0.00317
241.50 0.00285
242.00 0.00256
242.50 0.00228
243.00 0.00207
243.50 0.00192
244.00 0.00177
244.50 0.00162
245.00 0.00147
245.50 0.00131
246.00 0.00116
246.50 0.00106
247.00 0.00099
247.50 0.00092
248.00 0.00085
248.50 0.00078
249.00 0.00071
249.50 0.00064
250.00 0.00058
250.50 0.00055
251.00 0.00052
251.50 0.00049
252.00 0.00046
252.50 0.00043
253.00 0.00039
253.50 0.00036
254.00 0.00034
254.50 0.00033
255.00 0.00031
255.50 0.00030
256.00 0.00028
256.50 0.00026
257.00 0.00025
257.50 0.00023
258.00 0.00022
258.50 0.00021
259.00 0.00020
259.50 0.00019
260.00 0.00018
260.50 0.00017
261.00 0.00016
261.50 0.00015
262.00 0.00014
262.50 0.00013
263.00 0.00012
263.50 0.00011
264.00 0.00011
264.50 0.00010
265.00 0.00009
265.50 0.00008
266.00 0.00007
266.50 0.00006
267.00 0.00005
267.50 0.00004
268.00 0.00004
268.50 0.00003
269.00 0.00003
269.50 0.00003
270.00 0.00003
270.00 0.00003
270.50 0.00003
271.00 0.00003
271.50 0.00003
272.00 0.00004
272.50 0.00004
273.00 0.00005
273.50 0.00006
274.00 0.00007
274.50 0.00008
275.00 0.00009
275.50 0.00010
276.00 0.00011
276.50 0.00011
277.00 0.00012
277.50 0.00013
278.00 0.00014
278.50 0.00015
279.00 0.00016
279.50 0.00017
280.00 0.00018
280.50 0.00019
281.00 0.00020
281.50 0.00021
282.00 0.00022
282.50 0.00023
283.00 0.00025
283.50 0.00026
284.00 0.00028
284.50 0.00030
285.00 0.00031
285.50 0.00033
286.00 0.00034
286.50 0.00036
287.00 0.00039
287.50 0.00043
288.00 0.00046
288.50 0.00049
289.00 0.00052
289.50 0.00055
290.00 0.00058
290.50 0.00064
291.00 0.00071
291.50 0.00078
292.00 0.00085
292.50 0.00092
293.00 0.00099
293.50 0.00106
294.00 0.00116
294.50 0.00131
295.00 0.00147
295.50 0.00162
296.00 0.00177
296.50 0.00192
297.00 0.00207
297.50 0.00228
298.00 0.00256
298.50 0.00285
299.00 0.00317
299.50 0.00352
300.00 0.00387
300.50 0.00423
301.00 0.00476
301.50 0.00540
302.00 0.00605
302.50 0.00669
303.00 0.00733
303.50 0.00798
304.00 0.00868
304.50 0.00966
305.00 0.01113
305.50 0.01258
306.00 0.01400
306.50 0.01542
307.00 0.01683
307.50 0.01825
308.00 0.01986
308.50 0.02246
309.00 0.02506
309.50 0.02766
310.00 0.03042
310.50 0.03394
311.00 0.03841
311.50 0.04285
312.00 0.04728
312.50 0.05170
313.00 0.05723
313.50 0.06461
314.00 0.07199
314.50 0.07926
315.00 0.08653
315.50 0.09782
316.00 0.10911
316.50 0.12044
317.00 0.13178
317.50 0.14785
318.00 0.16639
318.50 0.18404
319.00 0.20138
319.50 0.21869
320.00 0.24615
320.50 0.27409
321.00 0.30200
321.50 0.32986
322.00 0.35769
322.50 0.38565
323.00 0.42041
323.50 0.45694
324.00 0.49343
324.50 0.53063
325.00 0.56771
325.50 0.60466
326.00 0.64090
326.50 0.67359
327.00 0.70955
327.50 0.74775
328.00 0.78565
328.50 0.82306
329.00 0.84874
329.50 0.87694
330.00 0.90487
330.50 0.93252
331.00 0.95989
331.50 0.97836
332.00 1.00024
332.50 1.02307
333.00 1.04573
333.50 1.06550
334.00 1.07894
334.50 1.09222
335.00 1.10533
335.50 1.11731
336.00 1.12849
336.50 1.13955
337.00 1.15050
337.50 1.16134
338.00 1.17031
338.50 1.17463
339.00 1.17994
339.50 1.18519
340.00 1.19039
340.50 1.19581
341.00 1.20168
341.50 1.20756
342.00 1.21450
342.50 1.21706
343.00 1.21957
343.50 1.22212
344.00 1.22490
344.50 1.22772
345.00 1.23058
345.50 1.23225
346.00 1.23454
346.50 1.23688
347.00 1.23928
347.50 1.24172
348.00 1.24189
348.50 1.24203
349.00 1.24296
349.50 1.24409
350.00 1.24528
350.50 1.24653
351.00 1.24785
351.50 1.24923
352.00 1.25004
352.50 1.25008
353.00 1.25025
353.50 1.25092
354.00 1.25166
354.50 1.25249
355.00 1.25339
355.50 1.25411
356.00 1.25418
356.50 1.25433
357.00 1.25459
357.50 1.25487
358.00 1.25515
358.50 1.25526
359.00 1.25516
359.50 1.25514
360.00 1.25521
