phi[deg] B[T]
0.00 1.72321
0.50 1.72259
1.00 1.72210
1.50 1.72224
2.00 1.72249
2.50 1.72225
3.00 1.72187
3.50 1.72162
4.00 1.72148
4.50 1.72144
5.00 1.72151
5.50 1.72170
6.00 1.72110
6.50 1.72023
7.00 1.71947
7.50 1.71904
8.00 1.71920
8.50 1.71946
9.00 1.71961
9.50 1.71744
10.00 1.71537
10.50 1.71340
11.00 1.71154
11.50 1.70977
12.00 1.70886
12.50 1.70844
13.00 1.70760
13.50 1.70624
14.00 1.70371
14.50 1.69974
15.00 1.69584
15.50 1.69200
16.00 1.68824
16.50 1.68456
17.00 1.68162
17.50 1.68009
18.00 1.67571
18.50 1.66919
19.00 1.66171
19.50 1.65426
20.00 1.64684
20.50 1.63946
21.00 1.63211
21.50 1.62526
22.00 1.61906
22.50 1.61190
23.00 1.60335
23.50 1.59076
24.00 1.57815
24.50 1.56555
25.00 1.55293
25.50 1.54031
26.00 1.52769
26.50 1.51652
27.00 1.50693
27.50 1.49380
28.00 1.47557
28.50 1.45726
29.00 1.43888
29.50 1.42043
30.00 1.40191
30.50 1.38331
31.00 1.36526
31.50 1.34918
32.00 1.32896
32.50 1.30800
33.00 1.28483
33.50 1.26032
34.00 1.23570
34.50 1.21095
35.00 1.18482
35.50 1.15792
36.00 1.13090
36.50 1.10277
37.00 1.07188
37.50 1.04368
38.00 1.01532
38.50 0.98502
39.00 0.95132
39.50 0.91745
40.00 0.88325
40.50 0.84860
41.00 0.81423
41.50 0.77970
42.00 0.74453
42.50 0.70814
43.00 0.67312
43.50 0.63787
44.00 0.60020
44.50 0.56235
45.00 0.52541
45.50 0.49167
46.00 0.45780
46.50 0.42382
47.00 0.39060
47.50 0.35786
48.00 0.32605
48.50 0.29974
49.00 0.27456
49.50 0.24939
50.00 0.22417
50.50 0.20518
51.00 0.18834
51.50 0.17119
52.00 0.15393
52.50 0.13666
53.00 0.12295
53.50 0.11152
54.00 0.10080
54.50 0.09322
55.00 0.08566
55.50 0.07810
56.00 0.07056
56.50 0.06303
57.00 0.05551
57.50 0.04845
58.00 0.04286
58.50 0.03755
59.00 0.03484
59.50 0.03214
60.00 0.02945
60.50 0.02677
61.00 0.02410
61.50 0.02142
62.00 0.01875
62.50 0.01648
63.00 0.01520
63.50 0.01392
64.00 0.01264
64.50 0.01135
65.00 0.01014
65.50 0.00904
66.00 0.00794
66.50 0.00727
67.00 0.00671
67.50 0.00616
68.00 0.00560
68.50 0.00505
69.00 0.00449
69.50 0.00394
70.00 0.00353
70.50 0.00327
71.00 0.00301
71.50 0.00275
72.00 0.00249
72.50 0.00222
73.00 0.00196
73.50 0.00173
74.00 0.00160
74.50 0.00148
75.00 0.00135
75.50 0.00124
76.00 0.00112
76.50 0.00100
77.00 0.00089
77.50 0.00082
78.00 0.00076
78.50 0.00069
79.00 0.00063
79.50 0.00058
80.00 0.00053
80.50 0.00049
81.00 0.00044
81.50 0.00041
82.00 0.00038
82.50 0.00034
83.00 0.00031
83.50 0.00028
84.00 0.00026
84.50 0.00024
85.00 0.00022
85.50 0.00020
86.00 0.00018
86.50 0.00017
87.00 0.00015
87.50 0.00013
88.00 0.00012
88.50 0.00011
89.00 0.00010
89.50 0.00010
90.00 0.00009
90.00 0.00009
90.50 0.00010
91.00 0.00010
91.50 0.00011
92.00 0.00012
92.50 0.00013
93.00 0.00015
93.50 0.00017
94.00 0.00018
94.50 0.00020
95.00 0.00022
95.50 0.00024
96.00 0.00026
96.50 0.00028
97.00 0.00031
97.50 0.00034
98.00 0.00038
98.50 0.00041
99.00 0.00044
99.50 0.00049
100.00 0.00053
100.50 0.00058
101.00 0.00063
101.50 0.00069
102.00 0.00076
102.50 0.00082
103.00 0.00089
103.50 0.00100
104.00 0.00112
104.50 0.00124
105.00 0.00135
105.50 0.00148
106.00 0.00160
106.50 0.00173
107.00 0.00196
107.50 0.00222
108.00 0.00249
108.50 0.00275
109.00 0.00301
109.50 0.00327
110.00 0.00353
110.50 0.00394
111.00 0.00449
111.50 0.00505
112.00 0.00560
112.50 0.00616
113.00 0.00671
113.50 0.00727
114.00 0.00794
114.50 0.00904
115.00 0.01014
115.50 0.01135
116.00 0.01264
116.50 0.01392
117.00 0.01520
117.50 0.01648
118.00 0.01875
118.50 0.02142
119.00 0.02410
119.50 0.02677
120.00 0.02945
120.50 0.03214
121.00 0.03484
121.50 0.03755
122.00 0.04286
122.50 0.04845
123.00 0.05551
123.50 0.06303
124.00 0.07056
124.50 0.07810
125.00 0.08566
125.50 0.09322
126.00 0.10080
126.50 0.11152
127.00 0.12295
127.50 0.13666
128.00 0.15393
128.50 0.17119
129.00 0.18834
129.50 0.20518
130.00 0.22417
130.50 0.24939
131.00 0.27456
131.50 0.29974
132.00 0.32605
132.50 0.35786
133.00 0.39060
133.50 0.42382
134.00 0.45780
134.50 0.49167
135.00 0.52541
135.50 0.56235
136.00 0.60020
136.50 0.63787
137.00 0.67312
137.50 0.70814
138.00 0.74453
138.50 0.77970
139.00 0.81423
139.50 0.84860
140.00 0.88325
140.50 0.91745
141.00 0.95132
141.50 0.98502
142.00 1.01532
142.50 1.04368
143.00 1.07188
143.50 1.10277
144.00 1.13090
144.50 1.15792
145.00 1.18482
145.50 1.21095
146.00 1.23570
146.50 1.26032
147.00 1.28483
147.50 1.30800
148.00 1.32896
148.50 1.34918
149.00 1.36526
149.50 1.38331
150.00 1.40191
150.50 1.42043
151.00 1.43888
151.50 1.45726
152.00 1.47557
152.50 1.49380
153.00 1.50693
153.50 1.51652
154.00 1.52769
154.50 1.54031
155.00 1.55293
155.50 1.56555
156.00 1.57815
156.50 1.59076
157.00 1.60335
157.50 1.61190
158.00 1.61906
158.50 1.62526
159.00 1.63211
159.50 1.63946
160.00 1.64684
160.50 1.65426
161.00 1.66171
161.50 1.66919
162.00 1.67571
162.50 1.68009
163.00 1.68162
163.50 1.68456
164.00 1.68824
164.50 1.69200
165.00 1.69584
165.50 1.69974
166.00 1.70371
166.50 1.70624
167.00 1.70760
167.50 1.70844
168.00 1.70886
168.50 1.70977
169.00 1.71154
169.50 1.71340
170.00 1.71537
170.50 1.71744
171.00 1.71961
171.50 1.71946
172.00 1.71920
172.50 1.71904
173.00 1.71947
173.50 1.72023
174.00 1.72110
174.50 1.72170
175.00 1.72151
175.50 1.72144
176.00 1.72148
176.50 1.72162
177.00 1.72187
177.50 1.72225
178.00 1.72249
178.50 1.72224
179.00 1.72210
179.50 1.72259
180.00 1.72321
180.00 1.72321
180.50 1.72259
181.00 1.72210
181.50 1.72224
182.00 1.72249
182.50 1.72225
183.00 1.72187
183.50 1.72162
184.00 1.72148
184.50 1.72144
185.00 1.72151
185.50 1.72170
186.00 1.72110
186.50 1.72023
187.00 1.71947
187.50 1.71904
188.00 1.71920
188.50 1.71946
189.00 1.71961
189.50 1.71744
190.00 1.71537
190.50 1.71340
191.00 1.71154
191.50 1.70977
192.00 1.70886
192.50 1.70844
193.00 1.70760
193.50 1.70624
194.00 1.70371
194.50 1.69974
195.00 1.69584
195.50 1.69200
196.00 1.68824
196.50 1.68456
197.00 1.68162
197.50 1.68009
198.00 1.67571
198.50 1.66919
199.00 1.66171
199.50 1.65426
200.00 1.64684
200.50 1.63946
201.00 1.63211
201.50 1.62526
202.00 1.61906
202.50 1.61190
203.00 1.60335
203.50 1.59076
204.00 1.57815
204.50 1.56555
205.00 1.55293
205.50 1.54031
206.00 1.52769
206.50 1.51652
207.00 1.50693
207.50 1.49380
208.00 1.47557
208.50 1.45726
209.00 1.43888
209.50 1.42043
210.00 1.40191
210.50 1.38331
211.00 1.36526
211.50 1.34918
212.00 1.32896
212.50 1.30800
213.00 1.28483
213.50 1.26032
214.00 1.23570
214.50 1.21095
215.00 1.18482
215.50 1.15792
216.00 1.13090
216.50 1.10277
217.00 1.07188
217.50 1.04368
218.00 1.01532
218.50 0.98502
219.00 0.95132
219.50 0.91745
220.00 0.88325
220.50 0.84860
221.00 0.81423
221.50 0.77970
222.00 0.74453
222.50 0.70814
223.00 0.67312
223.50 0.63787
224.00 0.60020
224.50 0.56235
225.00 0.52541
225.50 0.49167
226.00 0.45780
226.50 0.42382
227.00 0.39060
227.50 0.35786
228.00 0.32605
228.50 0.29974
229.00 0.27456
229.50 0.24939
230.00 0.22417
230.50 0.20518
231.00 0.18834
231.50 0.17119
232.00 0.15393
232.50 0.13666
233.00 0.12295
233.50 0.11152
234.00 0.10080
234.50 0.09322
235.00 0.08566
235.50 0.07810
236.00 0.07056
236.50 0.06303
237.00 0.05551
237.50 0.04845
238.00 0.04286
238.50 0.03755
239.00 0.03484
239.50 0.03214
240.00 0.02945
240.50 0.02677
241.00 0.02410
241.50 0.02142
242.00 0.01875
242.50 0.01648
243.00 0.01520
243.50 0.01392
244.00 0.01264
244.50 0.01135
245.00 0.01014
245.50 0.00904
246.00 0.00794
246.50 0.00727
247.00 0.00671
247.50 0.00616
248.00 0.00560
248.50 0.00505
249.00 0.00449
249.50 0.00394
250.00 0.00353
250.50 0.00327
251.00 0.00301
251.50 0.00275
252.00 0.00249
252.50 0.00222
253.00 0.00196
253.50 0.00173
254.00 0.00160
254.50 0.00148
255.00 0.00135
255.50 0.00124
256.00 0.00112
256.50 0.00100
257.00 0.00089
257.50 0.00082
258.00 0.00076
258.50 0.00069
259.00 0.00063
259.50 0.00058
260.00 0.00053
260.50 0.00049
261.00 0.00044
261.50 0.00041
262.00 0.00038
262.50 0.00034
263.00 0.00031
263.50 0.00028
264.00 0.00026
264.50 0.00024
265.00 0.00022
265.50 0.00020
266.00 0.00018
266.50 0.00017
267.00 0.00015
267.50 0.00013
268.00 0.00012
268.50 0.00011
269.00 0.00010
269.50 0.00010
270.00 0.00009
270.00 0.00009
270.50 0.00010
271.00 0.00010
271.50 0.00011
272.00 0.00012
272.50 0.00013
273.00 0.00015
273.50 0.00017
274.00 0.00018
274.50 0.00020
275.00 0.00022
275.50 0.00024
276.00 0.00026
276.50 0.00028
277.00 0.00031
277.50 0.00034
278.00 0.00038
278.50 0.00041
279.00 0.00044
279.50 0.00049
280.00 0.00053
280.50 0.00058
281.00 0.00063
281.50 0.00069
282.00 0.00076
282.50 0.00082
283.00 0.00089
283.50 0.00100
284.00 0.00112
284.50 0.00124
285.00 0.00135
285.50 0.00148
286.00 0.00160
286.50 0.00173
287.00 0.00196
287.50 0.00222
288.00 0.00249
288.50 0.00275
289.00 0.00301
289.50 0.00327
290.00 0.00353
290.50 0.00394
291.00 0.00449
291.50 0.00505
292.00 0.00560
292.50 0.00616
293.00 0.00671
293.50 0.00727
294.00 0.00794
294.50 0.00904
295.00 0.01014
295.50 0.01135
296.00 0.01264
296.50 0.01392
297.00 0.01520
297.50 0.01648
298.00 0.01875
298.50 0.02142
299.00 0.02410
299.50 0.02677
300.00 0.02945
300.50 0.03214
301.00 0.03484
301.50 0.03755
302.00 0.04286
302.50 0.04845
303.00 0.05551
303.50 0.06303
304.00 0.07056
304.50 0.07810
305.00 0.08566
305.50 0.09322
306.00 0.10080
306.50 0.11152
307.00 0.12295
307.50 0.13666
308.00 0.15393
308.50 0.17119
309.00 0.18834
309.50 0.20518
310.00 0.22417
310.50 0.24939
311.00 0.27456
311.50 0.29974
312.00 0.32605
312.50 0.35786
313.00 0.39060
313.50 0.42382
314.00 0.45780
314.50 0.49167
315.00 0.52541
315.50 0.56235
316.00 0.60020
316.50 0.63787
317.00 0.67312
317.50 0.70814
318.00 0.74453
318.50 0.77970
319.00 0.81423
319.50 0.84860
320.00 0.88325
320.50 0.91745
321.00 0.95132
321.50 0.98502
322.00 1.01532
322.50 1.04368
323.00 1.07188
323.50 1.10277
324.00 1.13090
324.50 1.15792
325.00 1.18482
325.50 1.21095
326.00 1.23570
326.50 1.26032
327.00 1.28483
327.50 1.30800
328.00 1.32896
328.50 1.34918
329.00 1.36526
329.50 1.38331
330.00 1.40191
330.50 1.42043
331.00 1.43888
331.50 1.45726
332.00 1.47557
332.50 1.49380
333.00 1.50693
333.50 1.51652
334.00 1.52769
334.50 1.54031
335.00 1.55293
335.50 1.56555
336.00 1.57815
336.50 1.59076
337.00 1.60335
337.50 1.61190
338.00 1.61906
338.50 1.62526
339.00 1.63211
339.50 1.63946
340.00 1.64684
340.50 1.65426
341.00 1.66171
341.50 1.66919
342.00 1.67571
342.50 1.68009
343.00 1.68162
343.50 1.68456
344.00 1.68824
344.50 1.69200
345.00 1.69584
345.50 1.69974
346.00 1.70371
346.50 1.70624
347.00 1.70760
347.50 1.70844
348.00 1.70886
348.50 1.70977
349.00 1.71154
349.50 1.71340
350.00 1.71537
350.50 1.71744
351.00 1.71961
351.50 1.71946
352.00 1.71920
352.50 1.71904
353.00 1.71947
353.50 1.72023
354.00 1.72110
354.50 1.72170
355.00 1.72151
355.50 1.72144
356.00 1.72148
356.50 1.72162
357.00 1.72187
357.50 1.72225
358.00 1.72249
358.50 1.72224
359.00 1.72210
359.50 1.72259
360.00 1.72321
