phi[deg] B[T]
0.00 1.39452
0.50 1.39426
1.00 1.39411
1.50 1.39406
2.00 1.39413
2.50 1.39433
3.00 1.39468
3.50 1.39513
4.00 1.39570
4.50 1.39637
5.00 1.39666
5.50 1.39700
6.00 1.39745
6.50 1.39801
7.00 1.39892
7.50 1.40005
8.00 1.40132
8.50 1.40224
9.00 1.40287
9.50 1.40359
10.00 1.40441
10.50 1.40533
11.00 1.40634
11.50 1.40745
12.00 1.40885
12.50 1.41126
13.00 1.41405
13.50 1.41406
14.00 1.41413
14.50 1.41427
15.00 1.41447
15.50 1.41473
16.00 1.41506
16.50 1.41545
17.00 1.41591
17.50 1.41643
18.00 1.41498
18.50 1.41106
19.00 1.40712
19.50 1.40317
20.00 1.39919
20.50 1.39521
21.00 1.39120
21.50 1.38718
22.00 1.38140
22.50 1.37362
23.00 1.35963
23.50 1.34594
24.00 1.33340
24.50 1.32087
25.00 1.30834
25.50 1.29582
26.00 1.28326
26.50 1.26791
27.00 1.25239
27.50 1.23551
28.00 1.21885
28.50 1.20355
29.00 1.18829
29.50 1.17308
30.00 1.15791
30.50 1.14280
31.00 1.12727
31.50 1.11224
32.00 1.09957
32.50 1.08644
33.00 1.07212
33.50 1.05785
34.00 1.04363
34.50 1.03009
35.00 1.01942
35.50 1.00828
36.00 0.99705
36.50 0.98564
37.00 0.97248
37.50 0.95932
38.00 0.94619
38.50 0.93314
39.00 0.92008
39.50 0.90704
40.00 0.89429
40.50 0.88050
41.00 0.86665
41.50 0.85275
42.00 0.83849
42.50 0.82381
43.00 0.80906
43.50 0.79367
44.00 0.77556
44.50 0.75738
45.00 0.74135
45.50 0.72301
46.00 0.70411
46.50 0.68509
47.00 0.66332
47.50 0.64094
48.00 0.61952
48.50 0.59728
49.00 0.57347
49.50 0.54948
50.00 0.52485
50.50 0.50061
51.00 0.47622
51.50 0.45167
52.00 0.42648
52.50 0.40098
53.00 0.37106
53.50 0.34069
54.00 0.31530
54.50 0.29473
55.00 0.27412
55.50 0.25347
56.00 0.23279
56.50 0.21207
57.00 0.19087
57.50 0.16964
58.00 0.14838
58.50 0.13665
59.00 0.12547
59.50 0.11428
60.00 0.10353
60.50 0.09413
61.00 0.08473
61.50 0.07534
62.00 0.06595
62.50 0.05978
63.00 0.05478
63.50 0.04978
64.00 0.04477
64.50 0.03975
65.00 0.03565
65.50 0.03175
66.00 0.02786
66.50 0.02564
67.00 0.02364
67.50 0.02164
68.00 0.01963
68.50 0.01762
69.00 0.01562
69.50 0.01368
70.00 0.01226
70.50 0.01131
71.00 0.01042
71.50 0.00952
72.00 0.00862
72.50 0.00772
73.00 0.00682
73.50 0.00593
74.00 0.00543
74.50 0.00496
75.00 0.00449
75.50 0.00402
76.00 0.00363
76.50 0.00324
77.00 0.00285
77.50 0.00264
78.00 0.00244
78.50 0.00224
79.00 0.00204
79.50 0.00185
80.00 0.00166
80.50 0.00147
81.00 0.00131
81.50 0.00121
82.00 0.00112
82.50 0.00102
83.00 0.00092
83.50 0.00084
84.00 0.00077
84.50 0.00069
85.00 0.00065
85.50 0.00062
86.00 0.00058
86.50 0.00054
87.00 0.00051
87.50 0.00048
88.00 0.00046
88.50 0.00045
89.00 0.00043
89.50 0.00042
90.00 0.00040
90.00 0.00040
90.50 0.00042
91.00 0.00043
91.50 0.00045
92.00 0.00046
92.50 0.00048
93.00 0.00051
93.50 0.00054
94.00 0.00058
94.50 0.00062
95.00 0.00065
95.50 0.00069
96.00 0.00077
96.50 0.00084
97.00 0.00092
97.50 0.00102
98.00 0.00112
98.50 0.00121
99.00 0.00131
99.50 0.00147
100.00 0.00166
100.50 0.00185
101.00 0.00204
101.50 0.00224
102.00 0.00244
102.50 0.00264
103.00 0.00285
103.50 0.00324
104.00 0.00363
104.50 0.00402
105.00 0.00449
105.50 0.00496
106.00 0.00543
106.50 0.00593
107.00 0.00682
107.50 0.00772
108.00 0.00862
108.50 0.00952
109.00 0.01042
109.50 0.01131
110.00 0.01226
110.50 0.01368
111.00 0.01562
111.50 0.01762
112.00 0.01963
112.50 0.02164
113.00 0.02364
113.50 0.02564
114.00 0.02786
114.50 0.03175
115.00 0.03565
115.50 0.03975
116.00 0.04477
116.50 0.04978
117.00 0.05478
117.50 0.05978
118.00 0.06595
118.50 0.07534
119.00 0.08473
119.50 0.09413
120.00 0.10353
120.50 0.11428
121.00 0.12547
121.50 0.13665
122.00 0.14838
122.50 0.16964
123.00 0.19087
123.50 0.21207
124.00 0.23279
124.50 0.25347
125.00 0.27412
125.50 0.29473
126.00 0.31530
126.50 0.34069
127.00 0.37106
127.50 0.40098
128.00 0.42648
128.50 0.45167
129.00 0.47622
129.50 0.50061
130.00 0.52485
130.50 0.54948
131.00 0.57347
131.50 0.59728
132.00 0.61952
132.50 0.64094
133.00 0.66332
133.50 0.68509
134.00 0.70411
134.50 0.72301
135.00 0.74135
135.50 0.75738
136.00 0.77556
136.50 0.79367
137.00 0.80906
137.50 0.82381
138.00 0.83849
138.50 0.85275
139.00 0.86665
139.50 0.88050
140.00 0.89429
140.50 0.90704
141.00 0.92008
141.50 0.93314
142.00 0.94619
142.50 0.95932
143.00 0.97248
143.50 0.98564
144.00 0.99705
144.50 1.00828
145.00 1.01942
145.50 1.03009
146.00 1.04363
146.50 1.05785
147.00 1.07212
147.50 1.08644
148.00 1.09957
148.50 1.11224
149.00 1.12727
149.50 1.14280
150.00 1.15791
150.50 1.17308
151.00 1.18829
151.50 1.20355
152.00 1.21885
152.50 1.23551
153.00 1.25239
153.50 1.26791
154.00 1.28326
154.50 1.29582
155.00 1.30834
155.50 1.32087
156.00 1.33340
156.50 1.34594
157.00 1.35963
157.50 1.37362
158.00 1.38140
158.50 1.38718
159.00 1.39120
159.50 1.39521
160.00 1.39919
160.50 1.40317
161.00 1.40712
161.50 1.41106
162.00 1.41498
162.50 1.41643
163.00 1.41591
163.50 1.41545
164.00 1.41506
164.50 1.41473
165.00 1.41447
165.50 1.41427
166.00 1.41413
166.50 1.41406
167.00 1.41405
167.50 1.41126
168.00 1.40885
168.50 1.40745
169.00 1.40634
169.50 1.40533
170.00 1.40441
170.50 1.40359
171.00 1.40287
171.50 1.40224
172.00 1.40132
172.50 1.40005
173.00 1.39892
173.50 1.39801
174.00 1.39745
174.50 1.39700
175.00 1.39666
175.50 1.39637
176.00 1.39570
176.50 1.39513
177.00 1.39468
177.50 1.39433
178.00 1.39413
178.50 1.39406
179.00 1.39411
179.50 1.39426
180.00 1.39452
180.00 1.39452
180.50 1.39426
181.00 1.39411
181.50 1.39406
182.00 1.39413
182.50 1.39433
183.00 1.39468
183.50 1.39513
184.00 1.39570
184.50 1.39637
185.00 1.39666
185.50 1.39700
186.00 1.39745
186.50 1.39801
187.00 1.39892
187.50 1.40005
188.00 1.40132
188.50 1.40224
189.00 1.40287
189.50 1.40359
190.00 1.40441
190.50 1.40533
191.00 1.40634
191.50 1.40745
192.00 1.40885
192.50 1.41126
193.00 1.41405
193.50 1.41406
194.00 1.41413
194.50 1.41427
195.00 1.41447
195.50 1.41473
196.00 1.41506
196.50 1.41545
197.00 1.41591
197.50 1.41643
198.00 1.41498
198.50 1.41106
199.00 1.40712
199.50 1.40317
200.00 1.39919
200.50 1.39521
201.00 1.39120
201.50 1.38718
202.00 1.38140
202.50 1.37362
203.00 1.35963
203.50 1.34594
204.00 1.33340
204.50 1.32087
205.00 1.30834
205.50 1.29582
206.00 1.28326
206.50 1.26791
207.00 1.25239
207.50 1.23551
208.00 1.21885
208.50 1.20355
209.00 1.18829
209.50 1.17308
210.00 1.15791
210.50 1.14280
211.00 1.12727
211.50 1.11224
212.00 1.09957
212.50 1.08644
213.00 1.07212
213.50 1.05785
214.00 1.04363
214.50 1.03009
215.00 1.01942
215.50 1.00828
216.00 0.99705
216.50 0.98564
217.00 0.97248
217.50 0.95932
218.00 0.94619
218.50 0.93314
219.00 0.92008
219.50 0.90704
220.00 0.89429
220.50 0.88050
221.00 0.86665
221.50 0.85275
222.00 0.83849
222.50 0.82381
223.00 0.80906
223.50 0.79367
224.00 0.77556
224.50 0.75738
225.00 0.74135
225.50 0.72301
226.00 0.70411
226.50 0.68509
227.00 0.66332
227.50 0.64094
228.00 0.61952
228.50 0.59728
229.00 0.57347
229.50 0.54948
230.00 0.52485
230.50 0.50061
231.00 0.47622
231.50 0.45167
232.00 0.42648
232.50 0.40098
233.00 0.37106
233.50 0.34069
234.00 0.31530
234.50 0.29473
235.00 0.27412
235.50 0.25347
236.00 0.23279
236.50 0.21207
237.00 0.19087
237.50 0.16964
238.00 0.14838
238.50 0.13665
239.00 0.12547
239.50 0.11428
240.00 0.10353
240.50 0.09413
241.00 0.08473
241.50 0.07534
242.00 0.06595
242.50 0.05978
243.00 0.05478
243.50 0.04978
244.00 0.04477
244.50 0.03975
245.00 0.03565
245.50 0.03175
246.00 0.02786
246.50 0.02564
247.00 0.02364
247.50 0.02164
248.00 0.01963
248.50 0.01762
249.00 0.01562
249.50 0.01368
250.00 0.01226
250.50 0.01131
251.00 0.01042
251.50 0.00952
252.00 0.00862
252.50 0.00772
253.00 0.00682
253.50 0.00593
254.00 0.00543
254.50 0.00496
255.00 0.00449
255.50 0.00402
256.00 0.00363
256.50 0.00324
257.00 0.00285
257.50 0.00264
258.00 0.00244
258.50 0.00224
259.00 0.00204
259.50 0.00185
260.00 0.00166
260.50 0.00147
261.00 0.00131
261.50 0.00121
262.00 0.00112
262.50 0.00102
263.00 0.00092
263.50 0.00084
264.00 0.00077
264.50 0.00069
265.00 0.00065
265.50 0.00062
266.00 0.00058
266.50 0.00054
267.00 0.00051
267.50 0.00048
268.00 0.00046
268.50 0.00045
269.00 0.00043
269.50 0.00042
270.00 0.00040
270.00 0.00040
270.50 0.00042
271.00 0.00043
271.50 0.00045
272.00 0.00046
272.50 0.00048
273.00 0.00051
273.50 0.00054
274.00 0.00058
274.50 0.00062
275.00 0.00065
275.50 0.00069
276.00 0.00077
276.50 0.00084
277.00 0.00092
277.50 0.00102
278.00 0.00112
278.50 0.00121
279.00 0.00131
279.50 0.00147
280.00 0.00166
280.50 0.00185
281.00 0.00204
281.50 0.00224
282.00 0.00244
282.50 0.00264
283.00 0.00285
283.50 0.00324
284.00 0.00363
284.50 0.00402
285.00 0.00449
285.50 0.00496
286.00 0.00543
286.50 0.00593
287.00 0.00682
287.50 0.00772
288.00 0.00862
288.50 0.00952
289.00 0.01042
289.50 0.01131
290.00 0.01226
290.50 0.01368
291.00 0.01562
291.50 0.01762
292.00 0.01963
292.50 0.02164
293.00 0.02364
293.50 0.02564
294.00 0.02786
294.50 0.03175
295.00 0.03565
295.50 0.03975
296.00 0.04477
296.50 0.04978
297.00 0.05478
297.50 0.05978
298.00 0.06595
298.50 0.07534
299.00 0.08473
299.50 0.09413
300.00 0.10353
300.50 0.11428
301.00 0.12547
301.50 0.13665
302.00 0.14838
302.50 0.16964
303.00 0.19087
303.50 0.21207
304.00 0.23279
304.50 0.25347
305.00 0.27412
305.50 0.29473
306.00 0.31530
306.50 0.34069
307.00 0.37106
307.50 0.40098
308.00 0.42648
308.50 0.45167
309.00 0.47622
309.50 0.50061
310.00 0.52485
310.50 0.54948
311.00 0.57347
311.50 0.59728
312.00 0.61952
312.50 0.64094
313.00 0.66332
313.50 0.68509
314.00 0.70411
314.50 0.72301
315.00 0.74135
315.50 0.75738
316.00 0.77556
316.50 0.79367
317.00 0.80906
317.50 0.82381
318.00 0.83849
318.50 0.85275
319.00 0.86665
319.50 0.88050
320.00 0.89429
320.50 0.90704
321.00 0.92008
321.50 0.93314
322.00 0.94619
322.50 0.95932
323.00 0.97248
323.50 0.98564
324.00 0.99705
324.50 1.00828
325.00 1.01942
325.50 1.03009
326.00 1.04363
326.50 1.05785
327.00 1.07212
327.50 1.08644
328.00 1.09957
328.50 1.11224
329.00 1.12727
329.50 1.14280
330.00 1.15791
330.50 1.17308
331.00 1.18829
331.50 1.20355
332.00 1.21885
332.50 1.23551
333.00 1.25239
333.50 1.26791
334.00 1.28326
334.50 1.29582
335.00 1.30834
335.50 1.32087
336.00 1.33340
336.50 1.34594
337.00 1.35963
337.50 1.37362
338.00 1.38140
338.50 1.38718
339.00 1.39120
339.50 1.39521
340.00 1.39919
340.50 1.40317
341.00 1.40712
341.50 1.41106
342.00 1.41498
342.50 1.41643
343.00 1.41591
343.50 1.41545
344.00 1.41506
344.50 1.41473
345.00 1.41447
345.50 1.41427
346.00 1.41413
346.50 1.41406
347.00 1.41405
347.50 1.41126
348.00 1.40885
348.50 1.40745
349.00 1.40634
349.50 1.40533
350.00 1.40441
350.50 1.40359
351.00 1.40287
351.50 1.40224
352.00 1.40132
352.50 1.40005
353.00 1.39892
353.50 1.39801
354.00 1.39745
354.50 1.39700
355.00 1.39666
355.50 1.39637
356.00 1.39570
356.50 1.39513
357.00 1.39468
357.50 1.39433
358.00 1.39413
358.50 1.39406
359.00 1.39411
359.50 1.39426
360.00 1.39452
