phi[deg] B[T]
0.00 1.32977
0.50 1.32917
1.00 1.32867
1.50 1.32827
2.00 1.32797
2.50 1.32754
3.00 1.32722
3.50 1.32701
4.00 1.32690
4.50 1.32701
5.00 1.32724
5.50 1.32768
6.00 1.32849
6.50 1.32941
7.00 1.33021
7.50 1.33095
8.00 1.33179
8.50 1.33272
9.00 1.33410
9.50 1.33663
10.00 1.33849
10.50 1.33973
11.00 1.33988
11.50 1.34011
12.00 1.34041
12.50 1.34078
13.00 1.34002
13.50 1.33880
14.00 1.33744
14.50 1.33559
15.00 1.33383
15.50 1.33214
16.00 1.33053
16.50 1.32898
17.00 1.32777
17.50 1.32712
18.00 1.32490
18.50 1.32223
19.00 1.31962
19.50 1.31707
20.00 1.31505
20.50 1.31421
21.00 1.31343
21.50 1.30768
22.00 1.30084
22.50 1.29402
23.00 1.28722
23.50 1.28111
24.00 1.27689
24.50 1.26586
25.00 1.25290
25.50 1.24141
26.00 1.22995
26.50 1.21851
27.00 1.20709
27.50 1.19427
28.00 1.18038
28.50 1.16652
29.00 1.15269
29.50 1.13890
30.00 1.12516
30.50 1.11147
31.00 1.09822
31.50 1.08591
32.00 1.07422
32.50 1.05988
33.00 1.04478
33.50 1.02969
34.00 1.01461
34.50 0.99955
35.00 0.98473
35.50 0.97074
36.00 0.95398
36.50 0.93542
37.00 0.91744
37.50 0.89995
38.00 0.88248
38.50 0.86396
39.00 0.84547
39.50 0.82698
40.00 0.80867
40.50 0.79063
41.00 0.77277
41.50 0.75531
42.00 0.73796
42.50 0.72068
43.00 0.70425
43.50 0.68789
44.00 0.67199
44.50 0.65662
45.00 0.64131
45.50 0.62733
46.00 0.61327
46.50 0.60033
47.00 0.58828
47.50 0.57620
48.00 0.56545
48.50 0.55555
49.00 0.54786
49.50 0.53844
50.00 0.52743
50.50 0.52047
51.00 0.51378
51.50 0.50428
52.00 0.49476
52.50 0.48521
53.00 0.47535
53.50 0.46161
54.00 0.45042
54.50 0.43914
55.00 0.42772
55.50 0.41615
56.00 0.40242
56.50 0.38766
57.00 0.36967
57.50 0.35152
58.00 0.33322
58.50 0.31367
59.00 0.28953
59.50 0.26528
60.00 0.24518
60.50 0.22615
61.00 0.20703
61.50 0.18781
62.00 0.16605
62.50 0.14336
63.00 0.12755
63.50 0.11308
64.00 0.10167
64.50 0.09025
65.00 0.07884
65.50 0.06788
66.00 0.06058
66.50 0.05326
67.00 0.04593
67.50 0.04040
68.00 0.03498
68.50 0.03057
69.00 0.02758
69.50 0.02458
70.00 0.02158
70.50 0.01858
71.00 0.01575
71.50 0.01399
72.00 0.01259
72.50 0.01121
73.00 0.00984
73.50 0.00846
74.00 0.00712
74.50 0.00640
75.00 0.00567
75.50 0.00494
76.00 0.00431
76.50 0.00370
77.00 0.00328
77.50 0.00295
78.00 0.00263
78.50 0.00231
79.00 0.00200
79.50 0.00170
80.00 0.00152
80.50 0.00135
81.00 0.00118
81.50 0.00105
82.00 0.00093
82.50 0.00081
83.00 0.00072
83.50 0.00063
84.00 0.00055
84.50 0.00050
85.00 0.00045
85.50 0.00040
86.00 0.00035
86.50 0.00031
87.00 0.00028
87.50 0.00025
88.00 0.00023
88.50 0.00021
89.00 0.00020
89.50 0.00018
90.00 0.00017
90.00 0.00017
90.50 0.00018
91.00 0.00020
91.50 0.00021
92.00 0.00023
92.50 0.00025
93.00 0.00028
93.50 0.00031
94.00 0.00035
94.50 0.00040
95.00 0.00045
95.50 0.00050
96.00 0.00055
96.50 0.00063
97.00 0.00072
97.50 0.00081
98.00 0.00093
98.50 0.00105
99.00 0.00118
99.50 0.00135
100.00 0.00152
100.50 0.00170
101.00 0.00200
101.50 0.00231
102.00 0.00263
102.50 0.00295
103.00 0.00328
103.50 0.00370
104.00 0.00431
104.50 0.00494
105.00 0.00567
105.50 0.00640
106.00 0.00712
106.50 0.00846
107.00 0.00984
107.50 0.01121
108.00 0.01259
108.50 0.01399
109.00 0.01575
109.50 0.01858
110.00 0.02158
110.50 0.02458
111.00 0.02758
111.50 0.03057
112.00 0.03498
112.50 0.04040
113.00 0.04593
113.50 0.05326
114.00 0.06058
114.50 0.06788
115.00 0.07884
115.50 0.09025
116.00 0.10167
116.50 0.11308
117.00 0.12755
117.50 0.14336
118.00 0.16605
118.50 0.18781
119.00 0.20703
119.50 0.22615
120.00 0.24518
120.50 0.26528
121.00 0.28953
121.50 0.31367
122.00 0.33322
122.50 0.35152
123.00 0.36967
123.50 0.38766
124.00 0.40242
124.50 0.41615
125.00 0.42772
125.50 0.43914
126.00 0.45042
126.50 0.46161
127.00 0.47535
127.50 0.48521
128.00 0.49476
128.50 0.50428
129.00 0.51378
129.50 0.52047
130.00 0.52743
130.50 0.53844
131.00 0.54786
131.50 0.55555
132.00 0.56545
132.50 0.57620
133.00 0.58828
133.50 0.60033
134.00 0.61327
134.50 0.62733
135.00 0.64131
135.50 0.65662
136.00 0.67199
136.50 0.68789
137.00 0.70425
137.50 0.72068
138.00 0.73796
138.50 0.75531
139.00 0.77277
139.50 0.79063
140.00 0.80867
140.50 0.82698
141.00 0.84547
141.50 0.86396
142.00 0.88248
142.50 0.89995
143.00 0.91744
143.50 0.93542
144.00 0.95398
144.50 0.97074
145.00 0.98473
145.50 0.99955
146.00 1.01461
146.50 1.02969
147.00 1.04478
147.50 1.05988
148.00 1.07422
148.50 1.08591
149.00 1.09822
149.50 1.11147
150.00 1.12516
150.50 1.13890
151.00 1.15269
151.50 1.16652
152.00 1.18038
152.50 1.19427
153.00 1.20709
153.50 1.21851
154.00 1.22995
154.50 1.24141
155.00 1.25290
155.50 1.26586
156.00 1.27689
156.50 1.28111
157.00 1.28722
157.50 1.29402
158.00 1.30084
158.50 1.30768
159.00 1.31343
159.50 1.31421
160.00 1.31505
160.50 1.31707
161.00 1.31962
161.50 1.32223
162.00 1.32490
162.50 1.32712
163.00 1.32777
163.50 1.32898
164.00 1.33053
164.50 1.33214
165.00 1.33383
165.50 1.33559
166.00 1.33744
166.50 1.33880
167.00 1.34002
167.50 1.34078
168.00 1.34041
168.50 1.34011
169.00 1.33988
169.50 1.33973
170.00 1.33849
170.50 1.33663
171.00 1.33410
171.50 1.33272
172.00 1.33179
172.50 1.33095
173.00 1.33021
173.50 1.32941
174.00 1.32849
174.50 1.32768
175.00 1.32724
175.50 1.32701
176.00 1.32690
176.50 1.32701
177.00 1.32722
177.50 1.32754
178.00 1.32797
178.50 1.32827
179.00 1.32867
179.50 1.32917
180.00 1.32977
180.00 1.32977
180.50 1.32917
181.00 1.32867
181.50 1.32827
182.00 1.32797
182.50 1.32754
183.00 1.32722
183.50 1.32701
184.00 1.32690
184.50 1.32701
185.00 1.32724
185.50 1.32768
186.00 1.32849
186.50 1.32941
187.00 1.33021
187.50 1.33095
188.00 1.33179
188.50 1.33272
189.00 1.33410
189.50 1.33663
190.00 1.33849
190.50 1.33973
191.00 1.33988
191.50 1.34011
192.00 1.34041
192.50 1.34078
193.00 1.34002
193.50 1.33880
194.00 1.33744
194.50 1.33559
195.00 1.33383
195.50 1.33214
196.00 1.33053
196.50 1.32898
197.00 1.32777
197.50 1.32712
198.00 1.32490
198.50 1.32223
199.00 1.31962
199.50 1.31707
200.00 1.31505
200.50 1.31421
201.00 1.31343
201.50 1.30768
202.00 1.30084
202.50 1.29402
203.00 1.28722
203.50 1.28111
204.00 1.27689
204.50 1.26586
205.00 1.25290
205.50 1.24141
206.00 1.22995
206.50 1.21851
207.00 1.20709
207.50 1.19427
208.00 1.18038
208.50 1.16652
209.00 1.15269
209.50 1.13890
210.00 1.12516
210.50 1.11147
211.00 1.09822
211.50 1.08591
212.00 1.07422
212.50 1.05988
213.00 1.04478
213.50 1.02969
214.00 1.01461
214.50 0.99955
215.00 0.98473
215.50 0.97074
216.00 0.95398
216.50 0.93542
217.00 0.91744
217.50 0.89995
218.00 0.88248
218.50 0.86396
219.00 0.84547
219.50 0.82698
220.00 0.80867
220.50 0.79063
221.00 0.77277
221.50 0.75531
222.00 0.73796
222.50 0.72068
223.00 0.70425
223.50 0.68789
224.00 0.67199
224.50 0.65662
225.00 0.64131
225.50 0.62733
226.00 0.61327
226.50 0.60033
227.00 0.58828
227.50 0.57620
228.00 0.56545
228.50 0.55555
229.00 0.54786
229.50 0.53844
230.00 0.52743
230.50 0.52047
231.00 0.51378
231.50 0.50428
232.00 0.49476
232.50 0.48521
233.00 0.47535
233.50 0.46161
234.00 0.45042
234.50 0.43914
235.00 0.42772
235.50 0.41615
236.00 0.40242
236.50 0.38766
237.00 0.36967
237.50 0.35152
238.00 0.33322
238.50 0.31367
239.00 0.28953
239.50 0.26528
240.00 0.24518
240.50 0.22615
241.00 0.20703
241.50 0.18781
242.00 0.16605
242.50 0.14336
243.00 0.12755
243.50 0.11308
244.00 0.10167
244.50 0.09025
245.00 0.07884
245.50 0.06788
246.00 0.06058
246.50 0.05326
247.00 0.04593
247.50 0.04040
248.00 0.03498
248.50 0.03057
249.00 0.02758
249.50 0.02458
250.00 0.02158
250.50 0.01858
251.00 0.01575
251.50 0.01399
252.00 0.01259
252.50 0.01121
253.00 0.00984
253.50 0.00846
254.00 0.00712
254.50 0.00640
255.00 0.00567
255.50 0.00494
256.00 0.00431
256.50 0.00370
257.00 0.00328
257.50 0.00295
258.00 0.00263
258.50 0.00231
259.00 0.00200
259.50 0.00170
260.00 0.00152
260.50 0.00135
261.00 0.00118
261.50 0.00105
262.00 0.00093
262.50 0.00081
263.00 0.00072
263.50 0.00063
264.00 0.00055
264.50 0.00050
265.00 0.00045
265.50 0.00040
266.00 0.00035
266.50 0.00031
267.00 0.00028
267.50 0.00025
268.00 0.00023
268.50 0.00021
269.00 0.00020
269.50 0.00018
270.00 0.00017
270.00 0.00017
270.50 0.00018
271.00 0.00020
271.50 0.00021
272.00 0.00023
272.50 0.00025
273.00 0.00028
273.50 0.00031
274.00 0.00035
274.50 0.00040
275.00 0.00045
275.50 0.00050
276.00 0.00055
276.50 0.00063
277.00 0.00072
277.50 0.00081
278.00 0.00093
278.50 0.00105
279.00 0.00118
279.50 0.00135
280.00 0.00152
280.50 0.00170
281.00 0.00200
281.50 0.00231
282.00 0.00263
282.50 0.00295
283.00 0.00328
283.50 0.00370
284.00 0.00431
284.50 0.00494
285.00 0.00567
285.50 0.00640
286.00 0.00712
286.50 0.00846
287.00 0.00984
287.50 0.01121
288.00 0.01259
288.50 0.01399
289.00 0.01575
289.50 0.01858
290.00 0.02158
290.50 0.02458
291.00 0.02758
291.50 0.03057
292.00 0.03498
292.50 0.04040
293.00 0.04593
293.50 0.05326
294.00 0.06058
294.50 0.06788
295.00 0.07884
295.50 0.09025
296.00 0.10167
296.50 0.11308
297.00 0.12755
297.50 0.14336
298.00 0.16605
298.50 0.18781
299.00 0.20703
299.50 0.22615
300.00 0.24518
300.50 0.26528
301.00 0.28953
301.50 0.31367
302.00 0.33322
302.50 0.35152
303.00 0.36967
303.50 0.38766
304.00 0.40242
304.50 0.41615
305.00 0.42772
305.50 0.43914
306.00 0.45042
306.50 0.46161
307.00 0.47535
307.50 0.48521
308.00 0.49476
308.50 0.50428
309.00 0.51378
309.50 0.52047
310.00 0.52743
310.50 0.53844
311.00 0.54786
311.50 0.55555
312.00 0.56545
312.50 0.57620
313.00 0.58828
313.50 0.60033
314.00 0.61327
314.50 0.62733
315.00 0.64131
315.50 0.65662
316.00 0.67199
316.50 0.68789
317.00 0.70425
317.50 0.72068
318.00 0.73796
318.50 0.75531
319.00 0.77277
319.50 0.79063
320.00 0.80867
320.50 0.82698
321.00 0.84547
321.50 0.86396
322.00 0.88248
322.50 0.89995
323.00 0.91744
323.50 0.93542
324.00 0.95398
324.50 0.97074
325.00 0.98473
325.50 0.99955
326.00 1.01461
326.50 1.02969
327.00 1.04478
327.50 1.05988
328.00 1.07422
328.50 1.08591
329.00 1.09822
329.50 1.11147
330.00 1.12516
330.50 1.13890
331.00 1.15269
331.50 1.16652
332.00 1.18038
332.50 1.19427
333.00 1.20709
333.50 1.21851
334.00 1.22995
334.50 1.24141
335.00 1.25290
335.50 1.26586
336.00 1.27689
336.50 1.28111
337.00 1.28722
337.50 1.29402
338.00 1.30084
338.50 1.30768
339.00 1.31343
339.50 1.31421
340.00 1.31505
340.50 1.31707
341.00 1.31962
341.50 1.32223
342.00 1.32490
342.50 1.32712
343.00 1.32777
343.50 1.32898
344.00 1.33053
344.50 1.33214
345.00 1.33383
345.50 1.33559
346.00 1.33744
346.50 1.33880
347.00 1.34002
347.50 1.34078
348.00 1.34041
348.50 1.34011
349.00 1.33988
349.50 1.33973
350.00 1.33849
350.50 1.33663
351.00 1.33410
351.50 1.33272
352.00 1.33179
352.50 1.33095
353.00 1.33021
353.50 1.32941
354.00 1.32849
354.50 1.32768
355.00 1.32724
355.50 1.32701
356.00 1.32690
356.50 1.32701
357.00 1.32722
357.50 1.32754
358.00 1.32797
358.50 1.32827
359.00 1.32867
359.50 1.32917
360.00 1.32977
