phi[deg] B[T]
0.00 1.53555
0.50 1.53532
1.00 1.53521
1.50 1.53522
2.00 1.53535
2.50 1.53563
3.00 1.53609
3.50 1.53668
4.00 1.53739
4.50 1.53821
5.00 1.53942
5.50 1.54091
6.00 1.54250
6.50 1.54340
7.00 1.54441
7.50 1.54553
8.00 1.54728
8.50 1.54917
9.00 1.55116
9.50 1.55203
10.00 1.55187
10.50 1.55194
11.00 1.55359
11.50 1.55532
12.00 1.55590
12.50 1.55532
13.00 1.55378
13.50 1.55169
14.00 1.54968
14.50 1.54774
15.00 1.54587
15.50 1.54408
16.00 1.54233
16.50 1.54052
17.00 1.53889
17.50 1.53490
18.00 1.53069
18.50 1.52652
19.00 1.52240
19.50 1.51834
20.00 1.51433
20.50 1.51105
21.00 1.50928
21.50 1.50340
22.00 1.49514
22.50 1.48689
23.00 1.47847
23.50 1.47007
24.00 1.46170
24.50 1.45146
25.00 1.43912
25.50 1.42682
26.00 1.41408
26.50 1.40008
27.00 1.38612
27.50 1.37247
28.00 1.35885
28.50 1.34509
29.00 1.33090
29.50 1.31670
30.00 1.30100
30.50 1.28533
31.00 1.26969
31.50 1.25408
32.00 1.23885
32.50 1.22504
33.00 1.21126
33.50 1.19445
34.00 1.17676
34.50 1.15908
35.00 1.14142
35.50 1.12367
36.00 1.10586
36.50 1.08770
37.00 1.06955
37.50 1.05127
38.00 1.03189
38.50 1.01254
39.00 0.99315
39.50 0.97418
40.00 0.95555
40.50 0.93696
41.00 0.91843
41.50 0.89991
42.00 0.88201
42.50 0.86436
43.00 0.84659
43.50 0.82881
44.00 0.81112
44.50 0.79346
45.00 0.77576
45.50 0.75818
46.00 0.74071
46.50 0.72321
47.00 0.70541
47.50 0.68759
48.00 0.66883
48.50 0.65089
49.00 0.63291
49.50 0.61544
50.00 0.59823
50.50 0.58015
51.00 0.56046
51.50 0.54126
52.00 0.52462
52.50 0.50790
53.00 0.49112
53.50 0.47350
54.00 0.45571
54.50 0.43786
55.00 0.41972
55.50 0.40023
56.00 0.38067
56.50 0.36181
57.00 0.34304
57.50 0.32420
58.00 0.30528
58.50 0.28638
59.00 0.26870
59.50 0.25092
60.00 0.23259
60.50 0.21420
61.00 0.19576
61.50 0.17727
62.00 0.16377
62.50 0.15170
63.00 0.13960
63.50 0.12748
64.00 0.11498
64.50 0.10179
65.00 0.08859
65.50 0.07825
66.00 0.07150
66.50 0.06475
67.00 0.05878
67.50 0.05306
68.00 0.04734
68.50 0.04163
69.00 0.03657
69.50 0.03322
70.00 0.02988
70.50 0.02653
71.00 0.02377
71.50 0.02151
72.00 0.01926
72.50 0.01700
73.00 0.01523
73.50 0.01375
74.00 0.01226
74.50 0.01077
75.00 0.00984
75.50 0.00896
76.00 0.00808
76.50 0.00721
77.00 0.00634
77.50 0.00562
78.00 0.00490
78.50 0.00447
79.00 0.00410
79.50 0.00374
80.00 0.00339
80.50 0.00303
81.00 0.00268
81.50 0.00233
82.00 0.00210
82.50 0.00191
83.00 0.00173
83.50 0.00155
84.00 0.00140
84.50 0.00126
85.00 0.00111
85.50 0.00104
86.00 0.00097
86.50 0.00090
87.00 0.00083
87.50 0.00076
88.00 0.00073
88.50 0.00070
89.00 0.00067
89.50 0.00064
90.00 0.00061
90.00 0.00061
90.50 0.00064
91.00 0.00067
91.50 0.00070
92.00 0.00073
92.50 0.00076
93.00 0.00083
93.50 0.00090
94.00 0.00097
94.50 0.00104
95.00 0.00111
95.50 0.00126
96.00 0.00140
96.50 0.00155
97.00 0.00173
97.50 0.00191
98.00 0.00210
98.50 0.00233
99.00 0.00268
99.50 0.00303
100.00 0.00339
100.50 0.00374
101.00 0.00410
101.50 0.00447
102.00 0.00490
102.50 0.00562
103.00 0.00634
103.50 0.00721
104.00 0.00808
104.50 0.00896
105.00 0.00984
105.50 0.01077
106.00 0.01226
106.50 0.01375
107.00 0.01523
107.50 0.01700
108.00 0.01926
108.50 0.02151
109.00 0.02377
109.50 0.02653
110.00 0.02988
110.50 0.03322
111.00 0.03657
111.50 0.04163
112.00 0.04734
112.50 0.05306
113.00 0.05878
113.50 0.06475
114.00 0.07150
114.50 0.07825
115.00 0.08859
115.50 0.10179
116.00 0.11498
116.50 0.12748
117.00 0.13960
117.50 0.15170
118.00 0.16377
118.50 0.17727
119.00 0.19576
119.50 0.21420
120.00 0.23259
120.50 0.25092
121.00 0.26870
121.50 0.28638
122.00 0.30528
122.50 0.32420
123.00 0.34304
123.50 0.36181
124.00 0.38067
124.50 0.40023
125.00 0.41972
125.50 0.43786
126.00 0.45571
126.50 0.47350
127.00 0.49112
127.50 0.50790
128.00 0.52462
128.50 0.54126
129.00 0.56046
129.50 0.58015
130.00 0.59823
130.50 0.61544
131.00 0.63291
131.50 0.65089
132.00 0.66883
132.50 0.68759
133.00 0.70541
133.50 0.72321
134.00 0.74071
134.50 0.75818
135.00 0.77576
135.50 0.79346
136.00 0.81112
136.50 0.82881
137.00 0.84659
137.50 0.86436
138.00 0.88201
138.50 0.89991
139.00 0.91843
139.50 0.93696
140.00 0.95555
140.50 0.97418
141.00 0.99315
141.50 1.01254
142.00 1.03189
142.50 1.05127
143.00 1.06955
143.50 1.08770
144.00 1.10586
144.50 1.12367
145.00 1.14142
145.50 1.15908
146.00 1.17676
146.50 1.19445
147.00 1.21126
147.50 1.22504
148.00 1.23885
148.50 1.25408
149.00 1.26969
149.50 1.28533
150.00 1.30100
150.50 1.31670
151.00 1.33090
151.50 1.34509
152.00 1.35885
152.50 1.37247
153.00 1.38612
153.50 1.40008
154.00 1.41408
154.50 1.42682
155.00 1.43912
155.50 1.45146
156.00 1.46170
156.50 1.47007
157.00 1.47847
157.50 1.48689
158.00 1.49514
158.50 1.50340
159.00 1.50928
159.50 1.51105
160.00 1.51433
160.50 1.51834
161.00 1.52240
161.50 1.52652
162.00 1.53069
162.50 1.53490
163.00 1.53889
163.50 1.54052
164.00 1.54233
164.50 1.54408
165.00 1.54587
165.50 1.54774
166.00 1.54968
166.50 1.55169
167.00 1.55378
167.50 1.55532
168.00 1.55590
168.50 1.55532
169.00 1.55359
169.50 1.55194
170.00 1.55187
170.50 1.55203
171.00 1.55116
171.50 1.54917
172.00 1.54728
172.50 1.54553
173.00 1.54441
173.50 1.54340
174.00 1.54250
174.50 1.54091
175.00 1.53942
175.50 1.53821
176.00 1.53739
176.50 1.53668
177.00 1.53609
177.50 1.53563
178.00 1.53535
178.50 1.53522
179.00 1.53521
179.50 1.53532
180.00 1.53555
180.00 1.53555
180.50 1.53532
181.00 1.53521
181.50 1.53522
182.00 1.53535
182.50 1.53563
183.00 1.53609
183.50 1.53668
184.00 1.53739
184.50 1.53821
185.00 1.53942
185.50 1.54091
186.00 1.54250
186.50 1.54340
187.00 1.54441
187.50 1.54553
188.00 1.54728
188.50 1.54917
189.00 1.55116
189.50 1.55203
190.00 1.55187
190.50 1.55194
191.00 1.55359
191.50 1.55532
192.00 1.55590
192.50 1.55532
193.00 1.55378
193.50 1.55169
194.00 1.54968
194.50 1.54774
195.00 1.54587
195.50 1.54408
196.00 1.54233
196.50 1.54052
197.00 1.53889
197.50 1.53490
198.00 1.53069
198.50 1.52652
199.00 1.52240
199.50 1.51834
200.00 1.51433
200.50 1.51105
201.00 1.50928
201.50 1.50340
202.00 1.49514
202.50 1.48689
203.00 1.47847
203.50 1.47007
204.00 1.46170
204.50 1.45146
205.00 1.43912
205.50 1.42682
206.00 1.41408
206.50 1.40008
207.00 1.38612
207.50 1.37247
208.00 1.35885
208.50 1.34509
209.00 1.33090
209.50 1.31670
210.00 1.30100
210.50 1.28533
211.00 1.26969
211.50 1.25408
212.00 1.23885
212.50 1.22504
213.00 1.21126
213.50 1.19445
214.00 1.17676
214.50 1.15908
215.00 1.14142
215.50 1.12367
216.00 1.10586
216.50 1.08770
217.00 1.06955
217.50 1.05127
218.00 1.03189
218.50 1.01254
219.00 0.99315
219.50 0.97418
220.00 0.95555
220.50 0.93696
221.00 0.91843
221.50 0.89991
222.00 0.88201
222.50 0.86436
223.00 0.84659
223.50 0.82881
224.00 0.81112
224.50 0.79346
225.00 0.77576
225.50 0.75818
226.00 0.74071
226.50 0.72321
227.00 0.70541
227.50 0.68759
228.00 0.66883
228.50 0.65089
229.00 0.63291
229.50 0.61544
230.00 0.59823
230.50 0.58015
231.00 0.56046
231.50 0.54126
232.00 0.52462
232.50 0.50790
233.00 0.49112
233.50 0.47350
234.00 0.45571
234.50 0.43786
235.00 0.41972
235.50 0.40023
236.00 0.38067
236.50 0.36181
237.00 0.34304
237.50 0.32420
238.00 0.30528
238.50 0.28638
239.00 0.26870
239.50 0.25092
240.00 0.23259
240.50 0.21420
241.00 0.19576
241.50 0.17727
242.00 0.16377
242.50 0.15170
243.00 0.13960
243.50 0.12748
244.00 0.11498
244.50 0.10179
245.00 0.08859
245.50 0.07825
246.00 0.07150
246.50 0.06475
247.00 0.05878
247.50 0.05306
248.00 0.04734
248.50 0.04163
249.00 0.03657
249.50 0.03322
250.00 0.02988
250.50 0.02653
251.00 0.02377
251.50 0.02151
252.00 0.01926
252.50 0.01700
253.00 0.01523
253.50 0.01375
254.00 0.01226
254.50 0.01077
255.00 0.00984
255.50 0.00896
256.00 0.00808
256.50 0.00721
257.00 0.00634
257.50 0.00562
258.00 0.00490
258.50 0.00447
259.00 0.00410
259.50 0.00374
260.00 0.00339
260.50 0.00303
261.00 0.00268
261.50 0.00233
262.00 0.00210
262.50 0.00191
263.00 0.00173
263.50 0.00155
264.00 0.00140
264.50 0.00126
265.00 0.00111
265.50 0.00104
266.00 0.00097
266.50 0.00090
267.00 0.00083
267.50 0.00076
268.00 0.00073
268.50 0.00070
269.00 0.00067
269.50 0.00064
270.00 0.00061
270.00 0.00061
270.50 0.00064
271.00 0.00067
271.50 0.00070
272.00 0.00073
272.50 0.00076
273.00 0.00083
273.50 0.00090
274.00 0.00097
274.50 0.00104
275.00 0.00111
275.50 0.00126
276.00 0.00140
276.50 0.00155
277.00 0.00173
277.50 0.00191
278.00 0.00210
278.50 0.00233
279.00 0.00268
279.50 0.00303
280.00 0.00339
280.50 0.00374
281.00 0.00410
281.50 0.00447
282.00 0.00490
282.50 0.00562
283.00 0.00634
283.50 0.00721
284.00 0.00808
284.50 0.00896
285.00 0.00984
285.50 0.01077
286.00 0.01226
286.50 0.01375
287.00 0.01523
287.50 0.01700
288.00 0.01926
288.50 0.02151
289.00 0.02377
289.50 0.02653
290.00 0.02988
290.50 0.03322
291.00 0.03657
291.50 0.04163
292.00 0.04734
292.50 0.05306
293.00 0.05878
293.50 0.06475
294.00 0.07150
294.50 0.07825
295.00 0.08859
295.50 0.10179
296.00 0.11498
296.50 0.12748
297.00 0.13960
297.50 0.15170
298.00 0.16377
298.50 0.17727
299.00 0.19576
299.50 0.21420
300.00 0.23259
300.50 0.25092
301.00 0.26870
301.50 0.28638
302.00 0.30528
302.50 0.32420
303.00 0.34304
303.50 0.36181
304.00 0.38067
304.50 0.40023
305.00 0.41972
305.50 0.43786
306.00 0.45571
306.50 0.47350
307.00 0.49112
307.50 0.50790
308.00 0.52462
308.50 0.54126
309.00 0.56046
309.50 0.58015
310.00 0.59823
310.50 0.61544
311.00 0.63291
311.50 0.65089
312.00 0.66883
312.50 0.68759
313.00 0.70541
313.50 0.72321
314.00 0.74071
314.50 0.75818
315.00 0.77576
315.50 0.79346
316.00 0.81112
316.50 0.82881
317.00 0.84659
317.50 0.86436
318.00 0.88201
318.50 0.89991
319.00 0.91843
319.50 0.93696
320.00 0.95555
320.50 0.97418
321.00 0.99315
321.50 1.01254
322.00 1.03189
322.50 1.05127
323.00 1.06955
323.50 1.08770
324.00 1.10586
324.50 1.12367
325.00 1.14142
325.50 1.15908
326.00 1.17676
326.50 1.19445
327.00 1.21126
327.50 1.22504
328.00 1.23885
328.50 1.25408
329.00 1.26969
329.50 1.28533
330.00 1.30100
330.50 1.31670
331.00 1.33090
331.50 1.34509
332.00 1.35885
332.50 1.37247
333.00 1.38612
333.50 1.40008
334.00 1.41408
334.50 1.42682
335.00 1.43912
335.50 1.45146
336.00 1.46170
336.50 1.47007
337.00 1.47847
337.50 1.48689
338.00 1.49514
338.50 1.50340
339.00 1.50928
339.50 1.51105
340.00 1.51433
340.50 1.51834
341.00 1.52240
341.50 1.52652
342.00 1.53069
342.50 1.53490
343.00 1.53889
343.50 1.54052
344.00 1.54233
344.50 1.54408
345.00 1.54587
345.50 1.54774
346.00 1.54968
346.50 1.55169
347.00 1.55378
347.50 1.55532
348.00 1.55590
348.50 1.55532
349.00 1.55359
349.50 1.55194
350.00 1.55187
350.50 1.55203
351.00 1.55116
351.50 1.54917
352.00 1.54728
352.50 1.54553
353.00 1.54441
353.50 1.54340
354.00 1.54250
354.50 1.54091
355.00 1.53942
355.50 1.53821
356.00 1.53739
356.50 1.53668
357.00 1.53609
357.50 1.53563
358.00 1.53535
358.50 1.53522
359.00 1.53521
359.50 1.53532
360.00 1.53555
