phi[deg] B[T]
0.00 1.21783
0.50 1.21746
1.00 1.21717
1.50 1.21697
2.00 1.21707
2.50 1.21686
3.00 1.21643
3.50 1.21646
4.00 1.21657
4.50 1.21676
5.00 1.21649
5.50 1.21628
6.00 1.21598
6.50 1.21574
7.00 1.21557
7.50 1.21529
8.00 1.21509
8.50 1.21457
9.00 1.21378
9.50 1.21307
10.00 1.21277
10.50 1.21270
11.00 1.21242
11.50 1.21149
12.00 1.21062
12.50 1.20982
13.00 1.20909
13.50 1.20908
14.00 1.20936
14.50 1.20937
15.00 1.20674
15.50 1.20416
16.00 1.20162
16.50 1.19913
17.00 1.19671
17.50 1.19491
18.00 1.19316
18.50 1.19146
19.00 1.18595
19.50 1.17944
20.00 1.17296
20.50 1.16651
21.00 1.16005
21.50 1.15349
22.00 1.14697
22.50 1.14049
23.00 1.13203
23.50 1.12178
24.00 1.11157
24.50 1.10141
25.00 1.09131
25.50 1.08125
26.00 1.07122
26.50 1.06123
27.00 1.05041
27.50 1.03916
28.00 1.02802
28.50 1.01895
29.00 1.00993
29.50 1.00090
30.00 0.99050
30.50 0.98014
31.00 0.96982
31.50 0.95954
32.00 0.95220
32.50 0.94636
33.00 0.94055
33.50 0.93416
34.00 0.92375
34.50 0.91335
35.00 0.90295
35.50 0.89255
36.00 0.88448
36.50 0.87970
37.00 0.87504
37.50 0.87090
38.00 0.86006
38.50 0.84688
39.00 0.83360
39.50 0.82022
40.00 0.80663
40.50 0.79117
41.00 0.77535
41.50 0.75943
42.00 0.74135
42.50 0.72307
43.00 0.70463
43.50 0.68511
44.00 0.66060
44.50 0.63593
45.00 0.61336
45.50 0.58681
46.00 0.56179
46.50 0.53660
47.00 0.50828
47.50 0.47909
48.00 0.44975
48.50 0.42119
49.00 0.39352
49.50 0.36568
50.00 0.33776
50.50 0.31133
51.00 0.28992
51.50 0.26845
52.00 0.24547
52.50 0.22205
53.00 0.19859
53.50 0.17877
54.00 0.16274
54.50 0.14668
55.00 0.13406
55.50 0.12192
56.00 0.10979
56.50 0.09870
57.00 0.08827
57.50 0.07784
58.00 0.07079
58.50 0.06501
59.00 0.05923
59.50 0.05360
60.00 0.04812
60.50 0.04265
61.00 0.03717
61.50 0.03422
62.00 0.03134
62.50 0.02845
63.00 0.02555
63.50 0.02266
64.00 0.01995
64.50 0.01826
65.00 0.01677
65.50 0.01528
66.00 0.01379
66.50 0.01230
67.00 0.01081
67.50 0.00982
68.00 0.00899
68.50 0.00816
69.00 0.00731
69.50 0.00645
70.00 0.00579
70.50 0.00536
71.00 0.00493
71.50 0.00450
72.00 0.00407
72.50 0.00364
73.00 0.00321
73.50 0.00283
74.00 0.00262
74.50 0.00240
75.00 0.00218
75.50 0.00197
76.00 0.00175
76.50 0.00154
77.00 0.00139
77.50 0.00129
78.00 0.00119
78.50 0.00109
79.00 0.00098
79.50 0.00088
80.00 0.00077
80.50 0.00072
81.00 0.00067
81.50 0.00062
82.00 0.00057
82.50 0.00052
83.00 0.00047
83.50 0.00042
84.00 0.00038
84.50 0.00035
85.00 0.00033
85.50 0.00031
86.00 0.00029
86.50 0.00028
87.00 0.00026
87.50 0.00024
88.00 0.00023
88.50 0.00023
89.00 0.00022
89.50 0.00021
90.00 0.00020
90.00 0.00020
90.50 0.00021
91.00 0.00022
91.50 0.00023
92.00 0.00023
92.50 0.00024
93.00 0.00026
93.50 0.00028
94.00 0.00029
94.50 0.00031
95.00 0.00033
95.50 0.00035
96.00 0.00038
96.50 0.00042
97.00 0.00047
97.50 0.00052
98.00 0.00057
98.50 0.00062
99.00 0.00067
99.50 0.00072
100.00 0.00077
100.50 0.00088
101.00 0.00098
101.50 0.00109
102.00 0.00119
102.50 0.00129
103.00 0.00139
103.50 0.00154
104.00 0.00175
104.50 0.00197
105.00 0.00218
105.50 0.00240
106.00 0.00262
106.50 0.00283
107.00 0.00321
107.50 0.00364
108.00 0.00407
108.50 0.00450
109.00 0.00493
109.50 0.00536
110.00 0.00579
110.50 0.00645
111.00 0.00731
111.50 0.00816
112.00 0.00899
112.50 0.00982
113.00 0.01081
113.50 0.01230
114.00 0.01379
114.50 0.01528
115.00 0.01677
115.50 0.01826
116.00 0.01995
116.50 0.02266
117.00 0.02555
117.50 0.02845
118.00 0.03134
118.50 0.03422
119.00 0.03717
119.50 0.04265
120.00 0.04812
120.50 0.05360
121.00 0.05923
121.50 0.06501
122.00 0.07079
122.50 0.07784
123.00 0.08827
123.50 0.09870
124.00 0.10979
124.50 0.12192
125.00 0.13406
125.50 0.14668
126.00 0.16274
126.50 0.17877
127.00 0.19859
127.50 0.22205
128.00 0.24547
128.50 0.26845
129.00 0.28992
129.50 0.31133
130.00 0.33776
130.50 0.36568
131.00 0.39352
131.50 0.42119
132.00 0.44975
132.50 0.47909
133.00 0.50828
133.50 0.53660
134.00 0.56179
134.50 0.58681
135.00 0.61336
135.50 0.63593
136.00 0.66060
136.50 0.68511
137.00 0.70463
137.50 0.72307
138.00 0.74135
138.50 0.75943
139.00 0.77535
139.50 0.79117
140.00 0.80663
140.50 0.82022
141.00 0.83360
141.50 0.84688
142.00 0.86006
142.50 0.87090
143.00 0.87504
143.50 0.87970
144.00 0.88448
144.50 0.89255
145.00 0.90295
145.50 0.91335
146.00 0.92375
146.50 0.93416
147.00 0.94055
147.50 0.94636
148.00 0.95220
148.50 0.95954
149.00 0.96982
149.50 0.98014
150.00 0.99050
150.50 1.00090
151.00 1.00993
151.50 1.01895
152.00 1.02802
152.50 1.03916
153.00 1.05041
153.50 1.06123
154.00 1.07122
154.50 1.08125
155.00 1.09131
155.50 1.10141
156.00 1.11157
156.50 1.12178
157.00 1.13203
157.50 1.14049
158.00 1.14697
158.50 1.15349
159.00 1.16005
159.50 1.16651
160.00 1.17296
160.50 1.17944
161.00 1.18595
161.50 1.19146
162.00 1.19316
162.50 1.19491
163.00 1.19671
163.50 1.19913
164.00 1.20162
164.50 1.20416
165.00 1.20674
165.50 1.20937
166.00 1.20936
166.50 1.20908
167.00 1.20909
167.50 1.20982
168.00 1.21062
168.50 1.21149
169.00 1.21242
169.50 1.21270
170.00 1.21277
170.50 1.21307
171.00 1.21378
171.50 1.21457
172.00 1.21509
172.50 1.21529
173.00 1.21557
173.50 1.21574
174.00 1.21598
174.50 1.21628
175.00 1.21649
175.50 1.21676
176.00 1.21657
176.50 1.21646
177.00 1.21643
177.50 1.21686
178.00 1.21707
178.50 1.21697
179.00 1.21717
179.50 1.21746
180.00 1.21783
180.00 1.21783
180.50 1.21746
181.00 1.21717
181.50 1.21697
182.00 1.21707
182.50 1.21686
183.00 1.21643
183.50 1.21646
184.00 1.21657
184.50 1.21676
185.00 1.21649
185.50 1.21628
186.00 1.21598
186.50 1.21574
187.00 1.21557
187.50 1.21529
188.00 1.21509
188.50 1.21457
189.00 1.21378
189.50 1.21307
190.00 1.21277
190.50 1.21270
191.00 1.21242
191.50 1.21149
192.00 1.21062
192.50 1.20982
193.00 1.20909
193.50 1.20908
194.00 1.20936
194.50 1.20937
195.00 1.20674
195.50 1.20416
196.00 1.20162
196.50 1.19913
197.00 1.19671
197.50 1.19491
198.00 1.19316
198.50 1.19146
199.00 1.18595
199.50 1.17944
200.00 1.17296
200.50 1.16651
201.00 1.16005
201.50 1.15349
202.00 1.14697
202.50 1.14049
203.00 1.13203
203.50 1.12178
204.00 1.11157
204.50 1.10141
205.00 1.09131
205.50 1.08125
206.00 1.07122
206.50 1.06123
207.00 1.05041
207.50 1.03916
208.00 1.02802
208.50 1.01895
209.00 1.00993
209.50 1.00090
210.00 0.99050
210.50 0.98014
211.00 0.96982
211.50 0.95954
212.00 0.95220
212.50 0.94636
213.00 0.94055
213.50 0.93416
214.00 0.92375
214.50 0.91335
215.00 0.90295
215.50 0.89255
216.00 0.88448
216.50 0.87970
217.00 0.87504
217.50 0.87090
218.00 0.86006
218.50 0.84688
219.00 0.83360
219.50 0.82022
220.00 0.80663
220.50 0.79117
221.00 0.77535
221.50 0.75943
222.00 0.74135
222.50 0.72307
223.00 0.70463
223.50 0.68511
224.00 0.66060
224.50 0.63593
225.00 0.61336
225.50 0.58681
226.00 0.56179
226.50 0.53660
227.00 0.50828
227.50 0.47909
228.00 0.44975
228.50 0.42119
229.00 0.39352
229.50 0.36568
230.00 0.33776
230.50 0.31133
231.00 0.28992
231.50 0.26845
232.00 0.24547
232.50 0.22205
233.00 0.19859
233.50 0.17877
234.00 0.16274
234.50 0.14668
235.00 0.13406
235.50 0.12192
236.00 0.10979
236.50 0.09870
237.00 0.08827
237.50 0.07784
238.00 0.07079
238.50 0.06501
239.00 0.05923
239.50 0.05360
240.00 0.04812
240.50 0.04265
241.00 0.03717
241.50 0.03422
242.00 0.03134
242.50 0.02845
243.00 0.02555
243.50 0.02266
244.00 0.01995
244.50 0.01826
245.00 0.01677
245.50 0.01528
246.00 0.01379
246.50 0.01230
247.00 0.01081
247.50 0.00982
248.00 0.00899
248.50 0.00816
249.00 0.00731
249.50 0.00645
250.00 0.00579
250.50 0.00536
251.00 0.00493
251.50 0.00450
252.00 0.00407
252.50 0.00364
253.00 0.00321
253.50 0.00283
254.00 0.00262
254.50 0.00240
255.00 0.00218
255.50 0.00197
256.00 0.00175
256.50 0.00154
257.00 0.00139
257.50 0.00129
258.00 0.00119
258.50 0.00109
259.00 0.00098
259.50 0.00088
260.00 0.00077
260.50 0.00072
261.00 0.00067
261.50 0.00062
262.00 0.00057
262.50 0.00052
263.00 0.00047
263.50 0.00042
264.00 0.00038
264.50 0.00035
265.00 0.00033
265.50 0.00031
266.00 0.00029
266.50 0.00028
267.00 0.00026
267.50 0.00024
268.00 0.00023
268.50 0.00023
269.00 0.00022
269.50 0.00021
270.00 0.00020
270.00 0.00020
270.50 0.00021
271.00 0.00022
271.50 0.00023
272.00 0.00023
272.50 0.00024
273.00 0.00026
273.50 0.00028
274.00 0.00029
274.50 0.00031
275.00 0.00033
275.50 0.00035
276.00 0.00038
276.50 0.00042
277.00 0.00047
277.50 0.00052
278.00 0.00057
278.50 0.00062
279.00 0.00067
279.50 0.00072
280.00 0.00077
280.50 0.00088
281.00 0.00098
281.50 0.00109
282.00 0.00119
282.50 0.00129
283.00 0.00139
283.50 0.00154
284.00 0.00175
284.50 0.00197
285.00 0.00218
285.50 0.00240
286.00 0.00262
286.50 0.00283
287.00 0.00321
287.50 0.00364
288.00 0.00407
288.50 0.00450
289.00 0.00493
289.50 0.00536
290.00 0.00579
290.50 0.00645
291.00 0.00731
291.50 0.00816
292.00 0.00899
292.50 0.00982
293.00 0.01081
293.50 0.01230
294.00 0.01379
294.50 0.01528
295.00 0.01677
295.50 0.01826
296.00 0.01995
296.50 0.02266
297.00 0.02555
297.50 0.02845
298.00 0.03134
298.50 0.03422
299.00 0.03717
299.50 0.04265
300.00 0.04812
300.50 0.05360
301.00 0.05923
301.50 0.06501
302.00 0.07079
302.50 0.07784
303.00 0.08827
303.50 0.09870
304.00 0.10979
304.50 0.12192
305.00 0.13406
305.50 0.14668
306.00 0.16274
306.50 0.17877
307.00 0.19859
307.50 0.22205
308.00 0.24547
308.50 0.26845
309.00 0.28992
309.50 0.31133
310.00 0.33776
310.50 0.36568
311.00 0.39352
311.50 0.42119
312.00 0.44975
312.50 0.47909
313.00 0.50828
313.50 0.53660
314.00 0.56179
314.50 0.58681
315.00 0.61336
315.50 0.63593
316.00 0.66060
316.50 0.68511
317.00 0.70463
317.50 0.72307
318.00 0.74135
318.50 0.75943
319.00 0.77535
319.50 0.79117
320.00 0.80663
320.50 0.82022
321.00 0.83360
321.50 0.84688
322.00 0.86006
322.50 0.87090
323.00 0.87504
323.50 0.87970
324.00 0.88448
324.50 0.89255
325.00 0.90295
325.50 0.91335
326.00 0.92375
326.50 0.93416
327.00 0.94055
327.50 0.94636
328.00 0.95220
328.50 0.95954
329.00 0.96982
329.50 0.98014
330.00 0.99050
330.50 1.00090
331.00 1.00993
331.50 1.01895
332.00 1.02802
332.50 1.03916
333.00 1.05041
333.50 1.06123
334.00 1.07122
334.50 1.08125
335.00 1.09131
335.50 1.10141
336.00 1.11157
336.50 1.12178
337.00 1.13203
337.50 1.14049
338.00 1.14697
338.50 1.15349
339.00 1.16005
339.50 1.16651
340.00 1.17296
340.50 1.17944
341.00 1.18595
341.50 1.19146
342.00 1.19316
342.50 1.19491
343.00 1.19671
343.50 1.19913
344.00 1.20162
344.50 1.20416
345.00 1.20674
345.50 1.20937
346.00 1.20936
346.50 1.20908
347.00 1.20909
347.50 1.20982
348.00 1.21062
348.50 1.21149
349.00 1.21242
349.50 1.21270
350.00 1.21277
350.50 1.21307
351.00 1.21378
351.50 1.21457
352.00 1.21509
352.50 1.21529
353.00 1.21557
353.50 1.21574
354.00 1.21598
354.50 1.21628
355.00 1.21649
355.50 1.21676
356.00 1.21657
356.50 1.21646
357.00 1.21643
357.50 1.21686
358.00 1.21707
358.50 1.21697
359.00 1.21717
359.50 1.21746
360.00 1.21783
