phi[deg] B[T]
0.00 1.68267
0.50 1.68263
1.00 1.68273
1.50 1.68296
2.00 1.68332
2.50 1.68382
3.00 1.68455
3.50 1.68550
4.00 1.68657
4.50 1.68776
5.00 1.68908
5.50 1.69057
6.00 1.69229
6.50 1.69412
7.00 1.69607
7.50 1.69702
8.00 1.69765
8.50 1.69864
9.00 1.69992
9.50 1.70130
10.00 1.70279
10.50 1.70399
11.00 1.70237
11.50 1.70084
12.00 1.70070
12.50 1.70072
13.00 1.70082
13.50 1.70071
14.00 1.69818
14.50 1.69573
15.00 1.69337
15.50 1.69041
16.00 1.68652
16.50 1.68270
17.00 1.67888
17.50 1.67414
18.00 1.66947
18.50 1.66487
19.00 1.66035
19.50 1.65590
20.00 1.65053
20.50 1.64255
21.00 1.63488
21.50 1.62728
22.00 1.61973
22.50 1.61224
23.00 1.60480
23.50 1.59740
24.00 1.58518
24.50 1.57260
25.00 1.55988
25.50 1.54684
26.00 1.53384
26.50 1.52088
27.00 1.50796
27.50 1.49508
28.00 1.47885
28.50 1.46216
29.00 1.44550
29.50 1.42971
30.00 1.41511
30.50 1.40052
31.00 1.38595
31.50 1.37068
32.00 1.35402
32.50 1.33738
33.00 1.32076
33.50 1.30243
34.00 1.28321
34.50 1.26400
35.00 1.24480
35.50 1.22660
36.00 1.20851
36.50 1.19041
37.00 1.17063
37.50 1.15040
38.00 1.13017
38.50 1.10994
39.00 1.08898
39.50 1.06899
40.00 1.04927
40.50 1.02955
41.00 1.00983
41.50 0.98850
42.00 0.96821
42.50 0.94919
43.00 0.93014
43.50 0.91042
44.00 0.89055
44.50 0.87066
45.00 0.85026
45.50 0.82933
46.00 0.80987
46.50 0.79037
47.00 0.77077
47.50 0.75074
48.00 0.73067
48.50 0.71028
49.00 0.68918
49.50 0.66920
50.00 0.64916
50.50 0.62908
51.00 0.60894
51.50 0.58777
52.00 0.56746
52.50 0.54804
53.00 0.52854
53.50 0.50899
54.00 0.49018
54.50 0.47174
55.00 0.45324
55.50 0.43409
56.00 0.41444
56.50 0.39472
57.00 0.37545
57.50 0.35620
58.00 0.33689
58.50 0.31751
59.00 0.29808
59.50 0.28175
60.00 0.26583
60.50 0.24987
61.00 0.23336
61.50 0.21652
62.00 0.19965
62.50 0.18275
63.00 0.16791
63.50 0.15535
64.00 0.14276
64.50 0.13014
65.00 0.11823
65.50 0.10841
66.00 0.09984
66.50 0.09219
67.00 0.08452
67.50 0.07685
68.00 0.06917
68.50 0.06350
69.00 0.05898
69.50 0.05447
70.00 0.04995
70.50 0.04547
71.00 0.04136
71.50 0.03725
72.00 0.03314
72.50 0.03006
73.00 0.02803
73.50 0.02600
74.00 0.02397
74.50 0.02196
75.00 0.01995
75.50 0.01794
76.00 0.01594
76.50 0.01455
77.00 0.01347
77.50 0.01239
78.00 0.01130
78.50 0.01030
79.00 0.00945
79.50 0.00860
80.00 0.00776
80.50 0.00714
81.00 0.00659
81.50 0.00604
82.00 0.00553
82.50 0.00513
83.00 0.00473
83.50 0.00433
84.00 0.00398
84.50 0.00370
85.00 0.00342
85.50 0.00325
86.00 0.00309
86.50 0.00293
87.00 0.00277
87.50 0.00261
88.00 0.00252
88.50 0.00245
89.00 0.00238
89.50 0.00231
90.00 0.00224
90.00 0.00224
90.50 0.00231
91.00 0.00238
91.50 0.00245
92.00 0.00252
92.50 0.00261
93.00 0.00277
93.50 0.00293
94.00 0.00309
94.50 0.00325
95.00 0.00342
95.50 0.00370
96.00 0.00398
96.50 0.00433
97.00 0.00473
97.50 0.00513
98.00 0.00553
98.50 0.00604
99.00 0.00659
99.50 0.00714
100.00 0.00776
100.50 0.00860
101.00 0.00945
101.50 0.01030
102.00 0.01130
102.50 0.01239
103.00 0.01347
103.50 0.01455
104.00 0.01594
104.50 0.01794
105.00 0.01995
105.50 0.02196
106.00 0.02397
106.50 0.02600
107.00 0.02803
107.50 0.03006
108.00 0.03314
108.50 0.03725
109.00 0.04136
109.50 0.04547
110.00 0.04995
110.50 0.05447
111.00 0.05898
111.50 0.06350
112.00 0.06917
112.50 0.07685
113.00 0.08452
113.50 0.09219
114.00 0.09984
114.50 0.10841
115.00 0.11823
115.50 0.13014
116.00 0.14276
116.50 0.15535
117.00 0.16791
117.50 0.18275
118.00 0.19965
118.50 0.21652
119.00 0.23336
119.50 0.24987
120.00 0.26583
120.50 0.28175
121.00 0.29808
121.50 0.31751
122.00 0.33689
122.50 0.35620
123.00 0.37545
123.50 0.39472
124.00 0.41444
124.50 0.43409
125.00 0.45324
125.50 0.47174
126.00 0.49018
126.50 0.50899
127.00 0.52854
127.50 0.54804
128.00 0.56746
128.50 0.58777
129.00 0.60894
129.50 0.62908
130.00 0.64916
130.50 0.66920
131.00 0.68918
131.50 0.71028
132.00 0.73067
132.50 0.75074
133.00 0.77077
133.50 0.79037
134.00 0.80987
134.50 0.82933
135.00 0.85026
135.50 0.87066
136.00 0.89055
136.50 0.91042
137.00 0.93014
137.50 0.94919
138.00 0.96821
138.50 0.98850
139.00 1.00983
139.50 1.02955
140.00 1.04927
140.50 1.06899
141.00 1.08898
141.50 1.10994
142.00 1.13017
142.50 1.15040
143.00 1.17063
143.50 1.19041
144.00 1.20851
144.50 1.22660
145.00 1.24480
145.50 1.26400
146.00 1.28321
146.50 1.30243
147.00 1.32076
147.50 1.33738
148.00 1.35402
148.50 1.37068
149.00 1.38595
149.50 1.40052
150.00 1.41511
150.50 1.42971
151.00 1.44550
151.50 1.46216
152.00 1.47885
152.50 1.49508
153.00 1.50796
153.50 1.52088
154.00 1.53384
154.50 1.54684
155.00 1.55988
155.50 1.57260
156.00 1.58518
156.50 1.59740
157.00 1.60480
157.50 1.61224
158.00 1.61973
158.50 1.62728
159.00 1.63488
159.50 1.64255
160.00 1.65053
160.50 1.65590
161.00 1.66035
161.50 1.66487
162.00 1.66947
162.50 1.67414
163.00 1.67888
163.50 1.68270
164.00 1.68652
164.50 1.69041
165.00 1.69337
165.50 1.69573
166.00 1.69818
166.50 1.70071
167.00 1.70082
167.50 1.70072
168.00 1.70070
168.50 1.70084
169.00 1.70237
169.50 1.70399
170.00 1.70279
170.50 1.70130
171.00 1.69992
171.50 1.69864
172.00 1.69765
172.50 1.69702
173.00 1.69607
173.50 1.69412
174.00 1.69229
174.50 1.69057
175.00 1.68908
175.50 1.68776
176.00 1.68657
176.50 1.68550
177.00 1.68455
177.50 1.68382
178.00 1.68332
178.50 1.68296
179.00 1.68273
179.50 1.68263
180.00 1.68267
180.00 1.68267
180.50 1.68263
181.00 1.68273
181.50 1.68296
182.00 1.68332
182.50 1.68382
183.00 1.68455
183.50 1.68550
184.00 1.68657
184.50 1.68776
185.00 1.68908
185.50 1.69057
186.00 1.69229
186.50 1.69412
187.00 1.69607
187.50 1.69702
188.00 1.69765
188.50 1.69864
189.00 1.69992
189.50 1.70130
190.00 1.70279
190.50 1.70399
191.00 1.70237
191.50 1.70084
192.00 1.70070
192.50 1.70072
193.00 1.70082
193.50 1.70071
194.00 1.69818
194.50 1.69573
195.00 1.69337
195.50 1.69041
196.00 1.68652
196.50 1.68270
197.00 1.67888
197.50 1.67414
198.00 1.66947
198.50 1.66487
199.00 1.66035
199.50 1.65590
200.00 1.65053
200.50 1.64255
201.00 1.63488
201.50 1.62728
202.00 1.61973
202.50 1.61224
203.00 1.60480
203.50 1.59740
204.00 1.58518
204.50 1.57260
205.00 1.55988
205.50 1.54684
206.00 1.53384
206.50 1.52088
207.00 1.50796
207.50 1.49508
208.00 1.47885
208.50 1.46216
209.00 1.44550
209.50 1.42971
210.00 1.41511
210.50 1.40052
211.00 1.38595
211.50 1.37068
212.00 1.35402
212.50 1.33738
213.00 1.32076
213.50 1.30243
214.00 1.28321
214.50 1.26400
215.00 1.24480
215.50 1.22660
216.00 1.20851
216.50 1.19041
217.00 1.17063
217.50 1.15040
218.00 1.13017
218.50 1.10994
219.00 1.08898
219.50 1.06899
220.00 1.04927
220.50 1.02955
221.00 1.00983
221.50 0.98850
222.00 0.96821
222.50 0.94919
223.00 0.93014
223.50 0.91042
224.00 0.89055
224.50 0.87066
225.00 0.85026
225.50 0.82933
226.00 0.80987
226.50 0.79037
227.00 0.77077
227.50 0.75074
228.00 0.73067
228.50 0.71028
229.00 0.68918
229.50 0.66920
230.00 0.64916
230.50 0.62908
231.00 0.60894
231.50 0.58777
232.00 0.56746
232.50 0.54804
233.00 0.52854
233.50 0.50899
234.00 0.49018
234.50 0.47174
235.00 0.45324
235.50 0.43409
236.00 0.41444
236.50 0.39472
237.00 0.37545
237.50 0.35620
238.00 0.33689
238.50 0.31751
239.00 0.29808
239.50 0.28175
240.00 0.26583
240.50 0.24987
241.00 0.23336
241.50 0.21652
242.00 0.19965
242.50 0.18275
243.00 0.16791
243.50 0.15535
244.00 0.14276
244.50 0.13014
245.00 0.11823
245.50 0.10841
246.00 0.09984
246.50 0.09219
247.00 0.08452
247.50 0.07685
248.00 0.06917
248.50 0.06350
249.00 0.05898
249.50 0.05447
250.00 0.04995
250.50 0.04547
251.00 0.04136
251.50 0.03725
252.00 0.03314
252.50 0.03006
253.00 0.02803
253.50 0.02600
254.00 0.02397
254.50 0.02196
255.00 0.01995
255.50 0.01794
256.00 0.01594
256.50 0.01455
257.00 0.01347
257.50 0.01239
258.00 0.01130
258.50 0.01030
259.00 0.00945
259.50 0.00860
260.00 0.00776
260.50 0.00714
261.00 0.00659
261.50 0.00604
262.00 0.00553
262.50 0.00513
263.00 0.00473
263.50 0.00433
264.00 0.00398
264.50 0.00370
265.00 0.00342
265.50 0.00325
266.00 0.00309
266.50 0.00293
267.00 0.00277
267.50 0.00261
268.00 0.00252
268.50 0.00245
269.00 0.00238
269.50 0.00231
270.00 0.00224
270.00 0.00224
270.50 0.00231
271.00 0.00238
271.50 0.00245
272.00 0.00252
272.50 0.00261
273.00 0.00277
273.50 0.00293
274.00 0.00309
274.50 0.00325
275.00 0.00342
275.50 0.00370
276.00 0.00398
276.50 0.00433
277.00 0.00473
277.50 0.00513
278.00 0.00553
278.50 0.00604
279.00 0.00659
279.50 0.00714
280.00 0.00776
280.50 0.00860
281.00 0.00945
281.50 0.01030
282.00 0.01130
282.50 0.01239
283.00 0.01347
283.50 0.01455
284.00 0.01594
284.50 0.01794
285.00 0.01995
285.50 0.02196
286.00 0.02397
286.50 0.02600
287.00 0.02803
287.50 0.03006
288.00 0.03314
288.50 0.03725
289.00 0.04136
289.50 0.04547
290.00 0.04995
290.50 0.05447
291.00 0.05898
291.50 0.06350
292.00 0.06917
292.50 0.07685
293.00 0.08452
293.50 0.09219
294.00 0.09984
294.50 0.10841
295.00 0.11823
295.50 0.13014
296.00 0.14276
296.50 0.15535
297.00 0.16791
297.50 0.18275
298.00 0.19965
298.50 0.21652
299.00 0.23336
299.50 0.24987
300.00 0.26583
300.50 0.28175
301.00 0.29808
301.50 0.31751
302.00 0.33689
302.50 0.35620
303.00 0.37545
303.50 0.39472
304.00 0.41444
304.50 0.43409
305.00 0.45324
305.50 0.47174
306.00 0.49018
306.50 0.50899
307.00 0.52854
307.50 0.54804
308.00 0.56746
308.50 0.58777
309.00 0.60894
309.50 0.62908
310.00 0.64916
310.50 0.66920
311.00 0.68918
311.50 0.71028
312.00 0.73067
312.50 0.75074
313.00 0.77077
313.50 0.79037
314.00 0.80987
314.50 0.82933
315.00 0.85026
315.50 0.87066
316.00 0.89055
316.50 0.91042
317.00 0.93014
317.50 0.94919
318.00 0.96821
318.50 0.98850
319.00 1.00983
319.50 1.02955
320.00 1.04927
320.50 1.06899
321.00 1.08898
321.50 1.10994
322.00 1.13017
322.50 1.15040
323.00 1.17063
323.50 1.19041
324.00 1.20851
324.50 1.22660
325.00 1.24480
325.50 1.26400
326.00 1.28321
326.50 1.30243
327.00 1.32076
327.50 1.33738
328.00 1.35402
328.50 1.37068
329.00 1.38595
329.50 1.40052
330.00 1.41511
330.50 1.42971
331.00 1.44550
331.50 1.46216
332.00 1.47885
332.50 1.49508
333.00 1.50796
333.50 1.52088
334.00 1.53384
334.50 1.54684
335.00 1.55988
335.50 1.57260
336.00 1.58518
336.50 1.59740
337.00 1.60480
337.50 1.61224
338.00 1.61973
338.50 1.62728
339.00 1.63488
339.50 1.64255
340.00 1.65053
340.50 1.65590
341.00 1.66035
341.50 1.66487
342.00 1.66947
342.50 1.67414
343.00 1.67888
343.50 1.68270
344.00 1.68652
344.50 1.69041
345.00 1.69337
345.50 1.69573
346.00 1.69818
346.50 1.70071
347.00 1.70082
347.50 1.70072
348.00 1.70070
348.50 1.70084
349.00 1.70237
349.50 1.70399
350.00 1.70279
350.50 1.70130
351.00 1.69992
351.50 1.69864
352.00 1.69765
352.50 1.69702
353.00 1.69607
353.50 1.69412
354.00 1.69229
354.50 1.69057
355.00 1.68908
355.50 1.68776
356.00 1.68657
356.50 1.68550
357.00 1.68455
357.50 1.68382
358.00 1.68332
358.50 1.68296
359.00 1.68273
359.50 1.68263
360.00 1.68267
