phi[deg] B[T]
0.00 1.45374
0.50 1.45325
1.00 1.45287
1.50 1.45259
2.00 1.45243
2.50 1.45234
3.00 1.45229
3.50 1.45235
4.00 1.45252
4.50 1.45279
5.00 1.45327
5.50 1.45391
6.00 1.45466
6.50 1.45499
7.00 1.45542
7.50 1.45596
8.00 1.45700
8.50 1.45815
9.00 1.45942
9.50 1.45973
10.00 1.45918
10.50 1.45884
11.00 1.45989
11.50 1.46102
12.00 1.46113
12.50 1.46022
13.00 1.45854
13.50 1.45641
14.00 1.45436
14.50 1.45239
15.00 1.45048
15.50 1.44865
16.00 1.44687
16.50 1.44508
17.00 1.44369
17.50 1.44009
18.00 1.43628
18.50 1.43252
19.00 1.42882
19.50 1.42516
20.00 1.42156
20.50 1.41871
21.00 1.41741
21.50 1.41235
22.00 1.40512
22.50 1.39789
23.00 1.39037
23.50 1.38287
24.00 1.37541
24.50 1.36628
25.00 1.35529
25.50 1.34435
26.00 1.33293
26.50 1.32020
27.00 1.30751
27.50 1.29525
28.00 1.28303
28.50 1.27069
29.00 1.25800
29.50 1.24527
30.00 1.23071
30.50 1.21617
31.00 1.20166
31.50 1.18717
32.00 1.17302
32.50 1.16027
33.00 1.14754
33.50 1.13151
34.00 1.11451
34.50 1.09752
35.00 1.08053
35.50 1.06297
36.00 1.04531
36.50 1.02760
37.00 1.00989
37.50 0.99196
38.00 0.97259
38.50 0.95325
39.00 0.93396
39.50 0.91525
40.00 0.89674
40.50 0.87835
41.00 0.86022
41.50 0.84211
42.00 0.82451
42.50 0.80738
43.00 0.79024
43.50 0.77309
44.00 0.75634
44.50 0.73974
45.00 0.72309
45.50 0.70681
46.00 0.69062
46.50 0.67443
47.00 0.65838
47.50 0.64232
48.00 0.62553
48.50 0.60958
49.00 0.59361
49.50 0.57841
50.00 0.56361
50.50 0.54737
51.00 0.52971
51.50 0.51200
52.00 0.49665
52.50 0.48207
53.00 0.46741
53.50 0.45201
54.00 0.43594
54.50 0.41981
55.00 0.40361
55.50 0.38581
56.00 0.36788
56.50 0.35019
57.00 0.33256
57.50 0.31485
58.00 0.29708
58.50 0.27923
59.00 0.26226
59.50 0.24524
60.00 0.22746
60.50 0.20964
61.00 0.19175
61.50 0.17382
62.00 0.16087
62.50 0.14904
63.00 0.13718
63.50 0.12530
64.00 0.11326
64.50 0.10020
65.00 0.08712
65.50 0.07679
66.00 0.07018
66.50 0.06357
67.00 0.05783
67.50 0.05221
68.00 0.04659
68.50 0.04098
69.00 0.03598
69.50 0.03268
70.00 0.02937
70.50 0.02606
71.00 0.02329
71.50 0.02109
72.00 0.01889
72.50 0.01669
73.00 0.01498
73.50 0.01351
74.00 0.01205
74.50 0.01059
75.00 0.00967
75.50 0.00881
76.00 0.00795
76.50 0.00709
77.00 0.00623
77.50 0.00552
78.00 0.00482
78.50 0.00441
79.00 0.00404
79.50 0.00369
80.00 0.00334
80.50 0.00299
81.00 0.00264
81.50 0.00229
82.00 0.00207
82.50 0.00189
83.00 0.00171
83.50 0.00153
84.00 0.00139
84.50 0.00125
85.00 0.00110
85.50 0.00104
86.00 0.00097
86.50 0.00090
87.00 0.00083
87.50 0.00076
88.00 0.00073
88.50 0.00070
89.00 0.00067
89.50 0.00065
90.00 0.00062
90.00 0.00062
90.50 0.00065
91.00 0.00067
91.50 0.00070
92.00 0.00073
92.50 0.00076
93.00 0.00083
93.50 0.00090
94.00 0.00097
94.50 0.00104
95.00 0.00110
95.50 0.00125
96.00 0.00139
96.50 0.00153
97.00 0.00171
97.50 0.00189
98.00 0.00207
98.50 0.00229
99.00 0.00264
99.50 0.00299
100.00 0.00334
100.50 0.00369
101.00 0.00404
101.50 0.00441
102.00 0.00482
102.50 0.00552
103.00 0.00623
103.50 0.00709
104.00 0.00795
104.50 0.00881
105.00 0.00967
105.50 0.01059
106.00 0.01205
106.50 0.01351
107.00 0.01498
107.50 0.01669
108.00 0.01889
108.50 0.02109
109.00 0.02329
109.50 0.02606
110.00 0.02937
110.50 0.03268
111.00 0.03598
111.50 0.04098
112.00 0.04659
112.50 0.05221
113.00 0.05783
113.50 0.06357
114.00 0.07018
114.50 0.07679
115.00 0.08712
115.50 0.10020
116.00 0.11326
116.50 0.12530
117.00 0.13718
117.50 0.14904
118.00 0.16087
118.50 0.17382
119.00 0.19175
119.50 0.20964
120.00 0.22746
120.50 0.24524
121.00 0.26226
121.50 0.27923
122.00 0.29708
122.50 0.31485
123.00 0.33256
123.50 0.35019
124.00 0.36788
124.50 0.38581
125.00 0.40361
125.50 0.41981
126.00 0.43594
126.50 0.45201
127.00 0.46741
127.50 0.48207
128.00 0.49665
128.50 0.51200
129.00 0.52971
129.50 0.54737
130.00 0.56361
130.50 0.57841
131.00 0.59361
131.50 0.60958
132.00 0.62553
132.50 0.64232
133.00 0.65838
133.50 0.67443
134.00 0.69062
134.50 0.70681
135.00 0.72309
135.50 0.73974
136.00 0.75634
136.50 0.77309
137.00 0.79024
137.50 0.80738
138.00 0.82451
138.50 0.84211
139.00 0.86022
139.50 0.87835
140.00 0.89674
140.50 0.91525
141.00 0.93396
141.50 0.95325
142.00 0.97259
142.50 0.99196
143.00 1.00989
143.50 1.02760
144.00 1.04531
144.50 1.06297
145.00 1.08053
145.50 1.09752
146.00 1.11451
146.50 1.13151
147.00 1.14754
147.50 1.16027
148.00 1.17302
148.50 1.18717
149.00 1.20166
149.50 1.21617
150.00 1.23071
150.50 1.24527
151.00 1.25800
151.50 1.27069
152.00 1.28303
152.50 1.29525
153.00 1.30751
153.50 1.32020
154.00 1.33293
154.50 1.34435
155.00 1.35529
155.50 1.36628
156.00 1.37541
156.50 1.38287
157.00 1.39037
157.50 1.39789
158.00 1.40512
158.50 1.41235
159.00 1.41741
159.50 1.41871
160.00 1.42156
160.50 1.42516
161.00 1.42882
161.50 1.43252
162.00 1.43628
162.50 1.44009
163.00 1.44369
163.50 1.44508
164.00 1.44687
164.50 1.44865
165.00 1.45048
165.50 1.45239
166.00 1.45436
166.50 1.45641
167.00 1.45854
167.50 1.46022
168.00 1.46113
168.50 1.46102
169.00 1.45989
169.50 1.45884
170.00 1.45918
170.50 1.45973
171.00 1.45942
171.50 1.45815
172.00 1.45700
172.50 1.45596
173.00 1.45542
173.50 1.45499
174.00 1.45466
174.50 1.45391
175.00 1.45327
175.50 1.45279
176.00 1.45252
176.50 1.45235
177.00 1.45229
177.50 1.45234
178.00 1.45243
178.50 1.45259
179.00 1.45287
179.50 1.45325
180.00 1.45374
180.00 1.45374
180.50 1.45325
181.00 1.45287
181.50 1.45259
182.00 1.45243
182.50 1.45234
183.00 1.45229
183.50 1.45235
184.00 1.45252
184.50 1.45279
185.00 1.45327
185.50 1.45391
186.00 1.45466
186.50 1.45499
187.00 1.45542
187.50 1.45596
188.00 1.45700
188.50 1.45815
189.00 1.45942
189.50 1.45973
190.00 1.45918
190.50 1.45884
191.00 1.45989
191.50 1.46102
192.00 1.46113
192.50 1.46022
193.00 1.45854
193.50 1.45641
194.00 1.45436
194.50 1.45239
195.00 1.45048
195.50 1.44865
196.00 1.44687
196.50 1.44508
197.00 1.44369
197.50 1.44009
198.00 1.43628
198.50 1.43252
199.00 1.42882
199.50 1.42516
200.00 1.42156
200.50 1.41871
201.00 1.41741
201.50 1.41235
202.00 1.40512
202.50 1.39789
203.00 1.39037
203.50 1.38287
204.00 1.37541
204.50 1.36628
205.00 1.35529
205.50 1.34435
206.00 1.33293
206.50 1.32020
207.00 1.30751
207.50 1.29525
208.00 1.28303
208.50 1.27069
209.00 1.25800
209.50 1.24527
210.00 1.23071
210.50 1.21617
211.00 1.20166
211.50 1.18717
212.00 1.17302
212.50 1.16027
213.00 1.14754
213.50 1.13151
214.00 1.11451
214.50 1.09752
215.00 1.08053
215.50 1.06297
216.00 1.04531
216.50 1.02760
217.00 1.00989
217.50 0.99196
218.00 0.97259
218.50 0.95325
219.00 0.93396
219.50 0.91525
220.00 0.89674
220.50 0.87835
221.00 0.86022
221.50 0.84211
222.00 0.82451
222.50 0.80738
223.00 0.79024
223.50 0.77309
224.00 0.75634
224.50 0.73974
225.00 0.72309
225.50 0.70681
226.00 0.69062
226.50 0.67443
227.00 0.65838
227.50 0.64232
228.00 0.62553
228.50 0.60958
229.00 0.59361
229.50 0.57841
230.00 0.56361
230.50 0.54737
231.00 0.52971
231.50 0.51200
232.00 0.49665
232.50 0.48207
233.00 0.46741
233.50 0.45201
234.00 0.43594
234.50 0.41981
235.00 0.40361
235.50 0.38581
236.00 0.36788
236.50 0.35019
237.00 0.33256
237.50 0.31485
238.00 0.29708
238.50 0.27923
239.00 0.26226
239.50 0.24524
240.00 0.22746
240.50 0.20964
241.00 0.19175
241.50 0.17382
242.00 0.16087
242.50 0.14904
243.00 0.13718
243.50 0.12530
244.00 0.11326
244.50 0.10020
245.00 0.08712
245.50 0.07679
246.00 0.07018
246.50 0.06357
247.00 0.05783
247.50 0.05221
248.00 0.04659
248.50 0.04098
249.00 0.03598
249.50 0.03268
250.00 0.02937
250.50 0.02606
251.00 0.02329
251.50 0.02109
252.00 0.01889
252.50 0.01669
253.00 0.01498
253.50 0.01351
254.00 0.01205
254.50 0.01059
255.00 0.00967
255.50 0.00881
256.00 0.00795
256.50 0.00709
257.00 0.00623
257.50 0.00552
258.00 0.00482
258.50 0.00441
259.00 0.00404
259.50 0.00369
260.00 0.00334
260.50 0.00299
261.00 0.00264
261.50 0.00229
262.00 0.00207
262.50 0.00189
263.00 0.00171
263.50 0.00153
264.00 0.00139
264.50 0.00125
265.00 0.00110
265.50 0.00104
266.00 0.00097
266.50 0.00090
267.00 0.00083
267.50 0.00076
268.00 0.00073
268.50 0.00070
269.00 0.00067
269.50 0.00065
270.00 0.00062
270.00 0.00062
270.50 0.00065
271.00 0.00067
271.50 0.00070
272.00 0.00073
272.50 0.00076
273.00 0.00083
273.50 0.00090
274.00 0.00097
274.50 0.00104
275.00 0.00110
275.50 0.00125
276.00 0.00139
276.50 0.00153
277.00 0.00171
277.50 0.00189
278.00 0.00207
278.50 0.00229
279.00 0.00264
279.50 0.00299
280.00 0.00334
280.50 0.00369
281.00 0.00404
281.50 0.00441
282.00 0.00482
282.50 0.00552
283.00 0.00623
283.50 0.00709
284.00 0.00795
284.50 0.00881
285.00 0.00967
285.50 0.01059
286.00 0.01205
286.50 0.01351
287.00 0.01498
287.50 0.01669
288.00 0.01889
288.50 0.02109
289.00 0.02329
289.50 0.02606
290.00 0.02937
290.50 0.03268
291.00 0.03598
291.50 0.04098
292.00 0.04659
292.50 0.05221
293.00 0.05783
293.50 0.06357
294.00 0.07018
294.50 0.07679
295.00 0.08712
295.50 0.10020
296.00 0.11326
296.50 0.12530
297.00 0.13718
297.50 0.14904
298.00 0.16087
298.50 0.17382
299.00 0.19175
299.50 0.20964
300.00 0.22746
300.50 0.24524
301.00 0.26226
301.50 0.27923
302.00 0.29708
302.50 0.31485
303.00 0.33256
303.50 0.35019
304.00 0.36788
304.50 0.38581
305.00 0.40361
305.50 0.41981
306.00 0.43594
306.50 0.45201
307.00 0.46741
307.50 0.48207
308.00 0.49665
308.50 0.51200
309.00 0.52971
309.50 0.54737
310.00 0.56361
310.50 0.57841
311.00 0.59361
311.50 0.60958
312.00 0.62553
312.50 0.64232
313.00 0.65838
313.50 0.67443
314.00 0.69062
314.50 0.70681
315.00 0.72309
315.50 0.73974
316.00 0.75634
316.50 0.77309
317.00 0.79024
317.50 0.80738
318.00 0.82451
318.50 0.84211
319.00 0.86022
319.50 0.87835
320.00 0.89674
320.50 0.91525
321.00 0.93396
321.50 0.95325
322.00 0.97259
322.50 0.99196
323.00 1.00989
323.50 1.02760
324.00 1.04531
324.50 1.06297
325.00 1.08053
325.50 1.09752
326.00 1.11451
326.50 1.13151
327.00 1.14754
327.50 1.16027
328.00 1.17302
328.50 1.18717
329.00 1.20166
329.50 1.21617
330.00 1.23071
330.50 1.24527
331.00 1.25800
331.50 1.27069
332.00 1.28303
332.50 1.29525
333.00 1.30751
333.50 1.32020
334.00 1.33293
334.50 1.34435
335.00 1.35529
335.50 1.36628
336.00 1.37541
336.50 1.38287
337.00 1.39037
337.50 1.39789
338.00 1.40512
338.50 1.41235
339.00 1.41741
339.50 1.41871
340.00 1.42156
340.50 1.42516
341.00 1.42882
341.50 1.43252
342.00 1.43628
342.50 1.44009
343.00 1.44369
343.50 1.44508
344.00 1.44687
344.50 1.44865
345.00 1.45048
345.50 1.45239
346.00 1.45436
346.50 1.45641
347.00 1.45854
347.50 1.46022
348.00 1.46113
348.50 1.46102
349.00 1.45989
349.50 1.45884
350.00 1.45918
350.50 1.45973
351.00 1.45942
351.50 1.45815
352.00 1.45700
352.50 1.45596
353.00 1.45542
353.50 1.45499
354.00 1.45466
354.50 1.45391
355.00 1.45327
355.50 1.45279
356.00 1.45252
356.50 1.45235
357.00 1.45229
357.50 1.45234
358.00 1.45243
358.50 1.45259
359.00 1.45287
359.50 1.45325
360.00 1.45374
