phi[deg] B[T]
0.00 1.27440
0.50 1.27141
1.00 1.26846
1.50 1.26557
2.00 1.26014
2.50 1.25479
3.00 1.24955
3.50 1.24475
4.00 1.23872
4.50 1.23235
5.00 1.22606
5.50 1.22053
6.00 1.21629
6.50 1.21174
7.00 1.20728
7.50 1.20293
8.00 1.19953
8.50 1.19687
9.00 1.19447
9.50 1.19221
10.00 1.19039
10.50 1.18959
11.00 1.18890
11.50 1.18847
12.00 1.18830
12.50 1.18956
13.00 1.19092
13.50 1.19210
14.00 1.19340
14.50 1.19564
15.00 1.19892
15.50 1.20227
16.00 1.20492
16.50 1.20766
17.00 1.21175
17.50 1.21701
18.00 1.22150
18.50 1.22407
19.00 1.22671
19.50 1.23188
20.00 1.23737
20.50 1.23973
21.00 1.23835
21.50 1.23700
22.00 1.23744
22.50 1.23800
23.00 1.22839
23.50 1.22048
24.00 1.21321
24.50 1.20597
25.00 1.19452
25.50 1.18213
26.00 1.17037
26.50 1.15958
27.00 1.14851
27.50 1.13701
28.00 1.12557
28.50 1.11418
29.00 1.10267
29.50 1.09055
30.00 1.08017
30.50 1.06983
31.00 1.05906
31.50 1.04663
32.00 1.03422
32.50 1.02222
33.00 1.01333
33.50 1.00079
34.00 0.98577
34.50 0.97070
35.00 0.95558
35.50 0.94040
36.00 0.92681
36.50 0.90637
37.00 0.88578
37.50 0.86505
38.00 0.84417
38.50 0.82430
39.00 0.79780
39.50 0.76957
40.00 0.74110
40.50 0.71363
41.00 0.68795
41.50 0.64945
42.00 0.60973
42.50 0.57028
43.00 0.52945
43.50 0.48622
44.00 0.44290
44.50 0.39536
45.00 0.34839
45.50 0.30679
46.00 0.26508
46.50 0.22632
47.00 0.19336
47.50 0.16471
48.00 0.13647
48.50 0.11773
49.00 0.09854
49.50 0.08106
50.00 0.06845
50.50 0.05813
51.00 0.04883
51.50 0.03975
52.00 0.03336
52.50 0.02753
53.00 0.02361
53.50 0.01968
54.00 0.01619
54.50 0.01315
55.00 0.01143
55.50 0.00990
56.00 0.00838
56.50 0.00685
57.00 0.00569
57.50 0.00515
58.00 0.00462
58.50 0.00408
59.00 0.00355
59.50 0.00301
60.00 0.00247
60.50 0.00228
61.00 0.00214
61.50 0.00199
62.00 0.00185
62.50 0.00174
63.00 0.00165
63.50 0.00160
64.00 0.00157
64.50 0.00152
65.00 0.00148
65.50 0.00144
66.00 0.00142
66.50 0.00139
67.00 0.00136
67.50 0.00132
68.00 0.00129
68.50 0.00126
69.00 0.00124
69.50 0.00121
70.00 0.00118
70.50 0.00115
71.00 0.00112
71.50 0.00109
72.00 0.00106
72.50 0.00104
73.00 0.00101
73.50 0.00098
74.00 0.00095
74.50 0.00092
75.00 0.00089
75.50 0.00086
76.00 0.00084
76.50 0.00081
77.00 0.00078
77.50 0.00075
78.00 0.00072
78.50 0.00069
79.00 0.00066
79.50 0.00063
80.00 0.00061
80.50 0.00058
81.00 0.00055
81.50 0.00052
82.00 0.00049
82.50 0.00046
83.00 0.00044
83.50 0.00041
84.00 0.00038
84.50 0.00035
85.00 0.00033
85.50 0.00030
86.00 0.00028
86.50 0.00025
87.00 0.00022
87.50 0.00020
88.00 0.00018
88.50 0.00017
89.00 0.00015
89.50 0.00014
90.00 0.00014
90.00 0.00014
90.50 0.00014
91.00 0.00015
91.50 0.00017
92.00 0.00018
92.50 0.00020
93.00 0.00022
93.50 0.00025
94.00 0.00028
94.50 0.00030
95.00 0.00033
95.50 0.00035
96.00 0.00038
96.50 0.00041
97.00 0.00044
97.50 0.00046
98.00 0.00049
98.50 0.00052
99.00 0.00055
99.50 0.00058
100.00 0.00061
100.50 0.00063
101.00 0.00066
101.50 0.00069
102.00 0.00072
102.50 0.00075
103.00 0.00078
103.50 0.00081
104.00 0.00084
104.50 0.00086
105.00 0.00089
105.50 0.00092
106.00 0.00095
106.50 0.00098
107.00 0.00101
107.50 0.00104
108.00 0.00106
108.50 0.00109
109.00 0.00112
109.50 0.00115
110.00 0.00118
110.50 0.00121
111.00 0.00124
111.50 0.00126
112.00 0.00129
112.50 0.00132
113.00 0.00136
113.50 0.00139
114.00 0.00142
114.50 0.00144
115.00 0.00148
115.50 0.00152
116.00 0.00157
116.50 0.00160
117.00 0.00165
117.50 0.00174
118.00 0.00185
118.50 0.00199
119.00 0.00214
119.50 0.00228
120.00 0.00247
120.50 0.00301
121.00 0.00355
121.50 0.00408
122.00 0.00462
122.50 0.00515
123.00 0.00569
123.50 0.00685
124.00 0.00838
124.50 0.00990
125.00 0.01143
125.50 0.01315
126.00 0.01619
126.50 0.01968
127.00 0.02361
127.50 0.02753
128.00 0.03336
128.50 0.03975
129.00 0.04883
129.50 0.05813
130.00 0.06845
130.50 0.08106
131.00 0.09854
131.50 0.11773
132.00 0.13647
132.50 0.16471
133.00 0.19336
133.50 0.22632
134.00 0.26508
134.50 0.30679
135.00 0.34839
135.50 0.39536
136.00 0.44290
136.50 0.48622
137.00 0.52945
137.50 0.57028
138.00 0.60973
138.50 0.64945
139.00 0.68795
139.50 0.71363
140.00 0.74110
140.50 0.76957
141.00 0.79780
141.50 0.82430
142.00 0.84417
142.50 0.86505
143.00 0.88578
143.50 0.90637
144.00 0.92681
144.50 0.94040
145.00 0.95558
145.50 0.97070
146.00 0.98577
146.50 1.00079
147.00 1.01333
147.50 1.02222
148.00 1.03422
148.50 1.04663
149.00 1.05906
149.50 1.06983
150.00 1.08017
150.50 1.09055
151.00 1.10267
151.50 1.11418
152.00 1.12557
152.50 1.13701
153.00 1.14851
153.50 1.15958
154.00 1.17037
154.50 1.18213
155.00 1.19452
155.50 1.20597
156.00 1.21321
156.50 1.22048
157.00 1.22839
157.50 1.23800
158.00 1.23744
158.50 1.23700
159.00 1.23835
159.50 1.23973
160.00 1.23737
160.50 1.23188
161.00 1.22671
161.50 1.22407
162.00 1.22150
162.50 1.21701
163.00 1.21175
163.50 1.20766
164.00 1.20492
164.50 1.20227
165.00 1.19892
165.50 1.19564
166.00 1.19340
166.50 1.19210
167.00 1.19092
167.50 1.18956
168.00 1.18830
168.50 1.18847
169.00 1.18890
169.50 1.18959
170.00 1.19039
170.50 1.19221
171.00 1.19447
171.50 1.19687
172.00 1.19953
172.50 1.20293
173.00 1.20728
173.50 1.21174
174.00 1.21629
174.50 1.22053
175.00 1.22606
175.50 1.23235
176.00 1.23872
176.50 1.24475
177.00 1.24955
177.50 1.25479
178.00 1.26014
178.50 1.26557
179.00 1.26846
179.50 1.27141
180.00 1.27440
180.00 1.27440
180.50 1.27141
181.00 1.26846
181.50 1.26557
182.00 1.26014
182.50 1.25479
183.00 1.24955
183.50 1.24475
184.00 1.23872
184.50 1.23235
185.00 1.22606
185.50 1.22053
186.00 1.21629
186.50 1.21174
187.00 1.20728
187.50 1.20293
188.00 1.19953
188.50 1.19687
189.00 1.19447
189.50 1.19221
190.00 1.19039
190.50 1.18959
191.00 1.18890
191.50 1.18847
192.00 1.18830
192.50 1.18956
193.00 1.19092
193.50 1.19210
194.00 1.19340
194.50 1.19564
195.00 1.19892
195.50 1.20227
196.00 1.20492
196.50 1.20766
197.00 1.21175
197.50 1.21701
198.00 1.22150
198.50 1.22407
199.00 1.22671
199.50 1.23188
200.00 1.23737
200.50 1.23973
201.00 1.23835
201.50 1.23700
202.00 1.23744
202.50 1.23800
203.00 1.22839
203.50 1.22048
204.00 1.21321
204.50 1.20597
205.00 1.19452
205.50 1.18213
206.00 1.17037
206.50 1.15958
207.00 1.14851
207.50 1.13701
208.00 1.12557
208.50 1.11418
209.00 1.10267
209.50 1.09055
210.00 1.08017
210.50 1.06983
211.00 1.05906
211.50 1.04663
212.00 1.03422
212.50 1.02222
213.00 1.01333
213.50 1.00079
214.00 0.98577
214.50 0.97070
215.00 0.95558
215.50 0.94040
216.00 0.92681
216.50 0.90637
217.00 0.88578
217.50 0.86505
218.00 0.84417
218.50 0.82430
219.00 0.79780
219.50 0.76957
220.00 0.74110
220.50 0.71363
221.00 0.68795
221.50 0.64945
222.00 0.60973
222.50 0.57028
223.00 0.52945
223.50 0.48622
224.00 0.44290
224.50 0.39536
225.00 0.34839
225.50 0.30679
226.00 0.26508
226.50 0.22632
227.00 0.19336
227.50 0.16471
228.00 0.13647
228.50 0.11773
229.00 0.09854
229.50 0.08106
230.00 0.06845
230.50 0.05813
231.00 0.04883
231.50 0.03975
232.00 0.03336
232.50 0.02753
233.00 0.02361
233.50 0.01968
234.00 0.01619
234.50 0.01315
235.00 0.01143
235.50 0.00990
236.00 0.00838
236.50 0.00685
237.00 0.00569
237.50 0.00515
238.00 0.00462
238.50 0.00408
239.00 0.00355
239.50 0.00301
240.00 0.00247
240.50 0.00228
241.00 0.00214
241.50 0.00199
242.00 0.00185
242.50 0.00174
243.00 0.00165
243.50 0.00160
244.00 0.00157
244.50 0.00152
245.00 0.00148
245.50 0.00144
246.00 0.00142
246.50 0.00139
247.00 0.00136
247.50 0.00132
248.00 0.00129
248.50 0.00126
249.00 0.00124
249.50 0.00121
250.00 0.00118
250.50 0.00115
251.00 0.00112
251.50 0.00109
252.00 0.00106
252.50 0.00104
253.00 0.00101
253.50 0.00098
254.00 0.00095
254.50 0.00092
255.00 0.00089
255.50 0.00086
256.00 0.00084
256.50 0.00081
257.00 0.00078
257.50 0.00075
258.00 0.00072
258.50 0.00069
259.00 0.00066
259.50 0.00063
260.00 0.00061
260.50 0.00058
261.00 0.00055
261.50 0.00052
262.00 0.00049
262.50 0.00046
263.00 0.00044
263.50 0.00041
264.00 0.00038
264.50 0.00035
265.00 0.00033
265.50 0.00030
266.00 0.00028
266.50 0.00025
267.00 0.00022
267.50 0.00020
268.00 0.00018
268.50 0.00017
269.00 0.00015
269.50 0.00014
270.00 0.00014
270.00 0.00014
270.50 0.00014
271.00 0.00015
271.50 0.00017
272.00 0.00018
272.50 0.00020
273.00 0.00022
273.50 0.00025
274.00 0.00028
274.50 0.00030
275.00 0.00033
275.50 0.00035
276.00 0.00038
276.50 0.00041
277.00 0.00044
277.50 0.00046
278.00 0.00049
278.50 0.00052
279.00 0.00055
279.50 0.00058
280.00 0.00061
280.50 0.00063
281.00 0.00066
281.50 0.00069
282.00 0.00072
282.50 0.00075
283.00 0.00078
283.50 0.00081
284.00 0.00084
284.50 0.00086
285.00 0.00089
285.50 0.00092
286.00 0.00095
286.50 0.00098
287.00 0.00101
287.50 0.00104
288.00 0.00106
288.50 0.00109
289.00 0.00112
289.50 0.00115
290.00 0.00118
290.50 0.00121
291.00 0.00124
291.50 0.00126
292.00 0.00129
292.50 0.00132
293.00 0.00136
293.50 0.00139
294.00 0.00142
294.50 0.00144
295.00 0.00148
295.50 0.00152
296.00 0.00157
296.50 0.00160
297.00 0.00165
297.50 0.00174
298.00 0.00185
298.50 0.00199
299.00 0.00214
299.50 0.00228
300.00 0.00247
300.50 0.00301
301.00 0.00355
301.50 0.00408
302.00 0.00462
302.50 0.00515
303.00 0.00569
303.50 0.00685
304.00 0.00838
304.50 0.00990
305.00 0.01143
305.50 0.01315
306.00 0.01619
306.50 0.01968
307.00 0.02361
307.50 0.02753
308.00 0.03336
308.50 0.03975
309.00 0.04883
309.50 0.05813
310.00 0.06845
310.50 0.08106
311.00 0.09854
311.50 0.11773
312.00 0.13647
312.50 0.16471
313.00 0.19336
313.50 0.22632
314.00 0.26508
314.50 0.30679
315.00 0.34839
315.50 0.39536
316.00 0.44290
316.50 0.48622
317.00 0.52945
317.50 0.57028
318.00 0.60973
318.50 0.64945
319.00 0.68795
319.50 0.71363
320.00 0.74110
320.50 0.76957
321.00 0.79780
321.50 0.82430
322.00 0.84417
322.50 0.86505
323.00 0.88578
323.50 0.90637
324.00 0.92681
324.50 0.94040
325.00 0.95558
325.50 0.97070
326.00 0.98577
326.50 1.00079
327.00 1.01333
327.50 1.02222
328.00 1.03422
328.50 1.04663
329.00 1.05906
329.50 1.06983
330.00 1.08017
330.50 1.09055
331.00 1.10267
331.50 1.11418
332.00 1.12557
332.50 1.13701
333.00 1.14851
333.50 1.15958
334.00 1.17037
334.50 1.18213
335.00 1.19452
335.50 1.20597
336.00 1.21321
336.50 1.22048
337.00 1.22839
337.50 1.23800
338.00 1.23744
338.50 1.23700
339.00 1.23835
339.50 1.23973
340.00 1.23737
340.50 1.23188
341.00 1.22671
341.50 1.22407
342.00 1.22150
342.50 1.21701
343.00 1.21175
343.50 1.20766
344.00 1.20492
344.50 1.20227
345.00 1.19892
345.50 1.19564
346.00 1.19340
346.50 1.19210
347.00 1.19092
347.50 1.18956
348.00 1.18830
348.50 1.18847
349.00 1.18890
349.50 1.18959
350.00 1.19039
350.50 1.19221
351.00 1.19447
351.50 1.19687
352.00 1.19953
352.50 1.20293
353.00 1.20728
353.50 1.21174
354.00 1.21629
354.50 1.22053
355.00 1.22606
355.50 1.23235
356.00 1.23872
356.50 1.24475
357.00 1.24955
357.50 1.25479
358.00 1.26014
358.50 1.26557
359.00 1.26846
359.50 1.27141
360.00 1.27440
