phi[deg] B[T]
0.00 1.98028
0.50 1.98015
1.00 1.98016
1.50 1.98032
2.00 1.98064
2.50 1.98119
3.00 1.98129
3.50 1.98219
4.00 1.98323
4.50 1.98441
5.00 1.98573
5.50 1.98719
6.00 1.98883
6.50 1.99061
7.00 1.99253
7.50 1.99309
8.00 1.99363
8.50 1.99462
9.00 1.99615
9.50 1.99780
10.00 1.99958
10.50 1.99894
11.00 1.99756
11.50 1.99687
12.00 1.99661
12.50 1.99645
13.00 1.99641
13.50 1.99623
14.00 1.99469
14.50 1.99230
15.00 1.98746
15.50 1.98331
16.00 1.98094
16.50 1.97864
17.00 1.97641
17.50 1.97315
18.00 1.96654
18.50 1.95998
19.00 1.95376
19.50 1.94986
20.00 1.94601
20.50 1.94041
21.00 1.93210
21.50 1.92383
22.00 1.91440
22.50 1.90353
23.00 1.89267
23.50 1.88183
24.00 1.86797
24.50 1.85342
25.00 1.83889
25.50 1.82425
26.00 1.80693
26.50 1.79004
27.00 1.77331
27.50 1.75659
28.00 1.73893
28.50 1.72005
29.00 1.70102
29.50 1.68095
30.00 1.66089
30.50 1.64086
31.00 1.61895
31.50 1.59603
32.00 1.57526
32.50 1.55448
33.00 1.53370
33.50 1.51168
34.00 1.48804
34.50 1.46439
35.00 1.43992
35.50 1.41456
36.00 1.38920
36.50 1.36384
37.00 1.33822
37.50 1.31200
38.00 1.28634
38.50 1.26069
39.00 1.23504
39.50 1.20923
40.00 1.18332
40.50 1.15843
41.00 1.13355
41.50 1.10866
42.00 1.08349
42.50 1.05933
43.00 1.03584
43.50 1.01246
44.00 0.98938
44.50 0.96630
45.00 0.94300
45.50 0.92068
46.00 0.89887
46.50 0.87704
47.00 0.85601
47.50 0.83565
48.00 0.81421
48.50 0.79195
49.00 0.77188
49.50 0.75211
50.00 0.73199
50.50 0.71068
51.00 0.69156
51.50 0.67238
52.00 0.65315
52.50 0.63376
53.00 0.61144
53.50 0.59085
54.00 0.57101
54.50 0.55110
55.00 0.53112
55.50 0.51086
56.00 0.48871
56.50 0.46864
57.00 0.44849
57.50 0.42825
58.00 0.40800
58.50 0.38852
59.00 0.36898
59.50 0.34744
60.00 0.32583
60.50 0.30415
61.00 0.28242
61.50 0.26111
62.00 0.24526
62.50 0.22958
63.00 0.21384
63.50 0.19806
64.00 0.18223
64.50 0.16562
65.00 0.15472
65.50 0.14402
66.00 0.13331
66.50 0.12255
67.00 0.11167
67.50 0.10078
68.00 0.09211
68.50 0.08611
69.00 0.08011
69.50 0.07409
70.00 0.06797
70.50 0.06184
71.00 0.05571
71.50 0.04994
72.00 0.04638
72.50 0.04305
73.00 0.03972
73.50 0.03639
74.00 0.03307
74.50 0.02975
75.00 0.02737
75.50 0.02554
76.00 0.02370
76.50 0.02187
77.00 0.02003
77.50 0.01813
78.00 0.01623
78.50 0.01500
79.00 0.01402
79.50 0.01304
80.00 0.01206
80.50 0.01108
81.00 0.01010
81.50 0.00914
82.00 0.00846
82.50 0.00789
83.00 0.00736
83.50 0.00683
84.00 0.00630
84.50 0.00583
85.00 0.00555
85.50 0.00526
86.00 0.00498
86.50 0.00469
87.00 0.00440
87.50 0.00430
88.00 0.00419
88.50 0.00407
89.00 0.00395
89.50 0.00383
90.00 0.00371
90.00 0.00371
90.50 0.00383
91.00 0.00395
91.50 0.00407
92.00 0.00419
92.50 0.00430
93.00 0.00440
93.50 0.00469
94.00 0.00498
94.50 0.00526
95.00 0.00555
95.50 0.00583
96.00 0.00630
96.50 0.00683
97.00 0.00736
97.50 0.00789
98.00 0.00846
98.50 0.00914
99.00 0.01010
99.50 0.01108
100.00 0.01206
100.50 0.01304
101.00 0.01402
101.50 0.01500
102.00 0.01623
102.50 0.01813
103.00 0.02003
103.50 0.02187
104.00 0.02370
104.50 0.02554
105.00 0.02737
105.50 0.02975
106.00 0.03307
106.50 0.03639
107.00 0.03972
107.50 0.04305
108.00 0.04638
108.50 0.04994
109.00 0.05571
109.50 0.06184
110.00 0.06797
110.50 0.07409
111.00 0.08011
111.50 0.08611
112.00 0.09211
112.50 0.10078
113.00 0.11167
113.50 0.12255
114.00 0.13331
114.50 0.14402
115.00 0.15472
115.50 0.16562
116.00 0.18223
116.50 0.19806
117.00 0.21384
117.50 0.22958
118.00 0.24526
118.50 0.26111
119.00 0.28242
119.50 0.30415
120.00 0.32583
120.50 0.34744
121.00 0.36898
121.50 0.38852
122.00 0.40800
122.50 0.42825
123.00 0.44849
123.50 0.46864
124.00 0.48871
124.50 0.51086
125.00 0.53112
125.50 0.55110
126.00 0.57101
126.50 0.59085
127.00 0.61144
127.50 0.63376
128.00 0.65315
128.50 0.67238
129.00 0.69156
129.50 0.71068
130.00 0.73199
130.50 0.75211
131.00 0.77188
131.50 0.79195
132.00 0.81421
132.50 0.83565
133.00 0.85601
133.50 0.87704
134.00 0.89887
134.50 0.92068
135.00 0.94300
135.50 0.96630
136.00 0.98938
136.50 1.01246
137.00 1.03584
137.50 1.05933
138.00 1.08349
138.50 1.10866
139.00 1.13355
139.50 1.15843
140.00 1.18332
140.50 1.20923
141.00 1.23504
141.50 1.26069
142.00 1.28634
142.50 1.31200
143.00 1.33822
143.50 1.36384
144.00 1.38920
144.50 1.41456
145.00 1.43992
145.50 1.46439
146.00 1.48804
146.50 1.51168
147.00 1.53370
147.50 1.55448
148.00 1.57526
148.50 1.59603
149.00 1.61895
149.50 1.64086
150.00 1.66089
150.50 1.68095
151.00 1.70102
151.50 1.72005
152.00 1.73893
152.50 1.75659
153.00 1.77331
153.50 1.79004
154.00 1.80693
154.50 1.82425
155.00 1.83889
155.50 1.85342
156.00 1.86797
156.50 1.88183
157.00 1.89267
157.50 1.90353
158.00 1.91440
158.50 1.92383
159.00 1.93210
159.50 1.94041
160.00 1.94601
160.50 1.94986
161.00 1.95376
161.50 1.95998
162.00 1.96654
162.50 1.97315
163.00 1.97641
163.50 1.97864
164.00 1.98094
164.50 1.98331
165.00 1.98746
165.50 1.99230
166.00 1.99469
166.50 1.99623
167.00 1.99641
167.50 1.99645
168.00 1.99661
168.50 1.99687
169.00 1.99756
169.50 1.99894
170.00 1.99958
170.50 1.99780
171.00 1.99615
171.50 1.99462
172.00 1.99363
172.50 1.99309
173.00 1.99253
173.50 1.99061
174.00 1.98883
174.50 1.98719
175.00 1.98573
175.50 1.98441
176.00 1.98323
176.50 1.98219
177.00 1.98129
177.50 1.98119
178.00 1.98064
178.50 1.98032
179.00 1.98016
179.50 1.98015
180.00 1.98028
180.00 1.98028
180.50 1.98015
181.00 1.98016
181.50 1.98032
182.00 1.98064
182.50 1.98119
183.00 1.98129
183.50 1.98219
184.00 1.98323
184.50 1.98441
185.00 1.98573
185.50 1.98719
186.00 1.98883
186.50 1.99061
187.00 1.99253
187.50 1.99309
188.00 1.99363
188.50 1.99462
189.00 1.99615
189.50 1.99780
190.00 1.99958
190.50 1.99894
191.00 1.99756
191.50 1.99687
192.00 1.99661
192.50 1.99645
193.00 1.99641
193.50 1.99623
194.00 1.99469
194.50 1.99230
195.00 1.98746
195.50 1.98331
196.00 1.98094
196.50 1.97864
197.00 1.97641
197.50 1.97315
198.00 1.96654
198.50 1.95998
199.00 1.95376
199.50 1.94986
200.00 1.94601
200.50 1.94041
201.00 1.93210
201.50 1.92383
202.00 1.91440
202.50 1.90353
203.00 1.89267
203.50 1.88183
204.00 1.86797
204.50 1.85342
205.00 1.83889
205.50 1.82425
206.00 1.80693
206.50 1.79004
207.00 1.77331
207.50 1.75659
208.00 1.73893
208.50 1.72005
209.00 1.70102
209.50 1.68095
210.00 1.66089
210.50 1.64086
211.00 1.61895
211.50 1.59603
212.00 1.57526
212.50 1.55448
213.00 1.53370
213.50 1.51168
214.00 1.48804
214.50 1.46439
215.00 1.43992
215.50 1.41456
216.00 1.38920
216.50 1.36384
217.00 1.33822
217.50 1.31200
218.00 1.28634
218.50 1.26069
219.00 1.23504
219.50 1.20923
220.00 1.18332
220.50 1.15843
221.00 1.13355
221.50 1.10866
222.00 1.08349
222.50 1.05933
223.00 1.03584
223.50 1.01246
224.00 0.98938
224.50 0.96630
225.00 0.94300
225.50 0.92068
226.00 0.89887
226.50 0.87704
227.00 0.85601
227.50 0.83565
228.00 0.81421
228.50 0.79195
229.00 0.77188
229.50 0.75211
230.00 0.73199
230.50 0.71068
231.00 0.69156
231.50 0.67238
232.00 0.65315
232.50 0.63376
233.00 0.61144
233.50 0.59085
234.00 0.57101
234.50 0.55110
235.00 0.53112
235.50 0.51086
236.00 0.48871
236.50 0.46864
237.00 0.44849
237.50 0.42825
238.00 0.40800
238.50 0.38852
239.00 0.36898
239.50 0.34744
240.00 0.32583
240.50 0.30415
241.00 0.28242
241.50 0.26111
242.00 0.24526
242.50 0.22958
243.00 0.21384
243.50 0.19806
244.00 0.18223
244.50 0.16562
245.00 0.15472
245.50 0.14402
246.00 0.13331
246.50 0.12255
247.00 0.11167
247.50 0.10078
248.00 0.09211
248.50 0.08611
249.00 0.08011
249.50 0.07409
250.00 0.06797
250.50 0.06184
251.00 0.05571
251.50 0.04994
252.00 0.04638
252.50 0.04305
253.00 0.03972
253.50 0.03639
254.00 0.03307
254.50 0.02975
255.00 0.02737
255.50 0.02554
256.00 0.02370
256.50 0.02187
257.00 0.02003
257.50 0.01813
258.00 0.01623
258.50 0.01500
259.00 0.01402
259.50 0.01304
260.00 0.01206
260.50 0.01108
261.00 0.01010
261.50 0.00914
262.00 0.00846
262.50 0.00789
263.00 0.00736
263.50 0.00683
264.00 0.00630
264.50 0.00583
265.00 0.00555
265.50 0.00526
266.00 0.00498
266.50 0.00469
267.00 0.00440
267.50 0.00430
268.00 0.00419
268.50 0.00407
269.00 0.00395
269.50 0.00383
270.00 0.00371
270.00 0.00371
270.50 0.00383
271.00 0.00395
271.50 0.00407
272.00 0.00419
272.50 0.00430
273.00 0.00440
273.50 0.00469
274.00 0.00498
274.50 0.00526
275.00 0.00555
275.50 0.00583
276.00 0.00630
276.50 0.00683
277.00 0.00736
277.50 0.00789
278.00 0.00846
278.50 0.00914
279.00 0.01010
279.50 0.01108
280.00 0.01206
280.50 0.01304
281.00 0.01402
281.50 0.01500
282.00 0.01623
282.50 0.01813
283.00 0.02003
283.50 0.02187
284.00 0.02370
284.50 0.02554
285.00 0.02737
285.50 0.02975
286.00 0.03307
286.50 0.03639
287.00 0.03972
287.50 0.04305
288.00 0.04638
288.50 0.04994
289.00 0.05571
289.50 0.06184
290.00 0.06797
290.50 0.07409
291.00 0.08011
291.50 0.08611
292.00 0.09211
292.50 0.10078
293.00 0.11167
293.50 0.12255
294.00 0.13331
294.50 0.14402
295.00 0.15472
295.50 0.16562
296.00 0.18223
296.50 0.19806
297.00 0.21384
297.50 0.22958
298.00 0.24526
298.50 0.26111
299.00 0.28242
299.50 0.30415
300.00 0.32583
300.50 0.34744
301.00 0.36898
301.50 0.38852
302.00 0.40800
302.50 0.42825
303.00 0.44849
303.50 0.46864
304.00 0.48871
304.50 0.51086
305.00 0.53112
305.50 0.55110
306.00 0.57101
306.50 0.59085
307.00 0.61144
307.50 0.63376
308.00 0.65315
308.50 0.67238
309.00 0.69156
309.50 0.71068
310.00 0.73199
310.50 0.75211
311.00 0.77188
311.50 0.79195
312.00 0.81421
312.50 0.83565
313.00 0.85601
313.50 0.87704
314.00 0.89887
314.50 0.92068
315.00 0.94300
315.50 0.96630
316.00 0.98938
316.50 1.01246
317.00 1.03584
317.50 1.05933
318.00 1.08349
318.50 1.10866
319.00 1.13355
319.50 1.15843
320.00 1.18332
320.50 1.20923
321.00 1.23504
321.50 1.26069
322.00 1.28634
322.50 1.31200
323.00 1.33822
323.50 1.36384
324.00 1.38920
324.50 1.41456
325.00 1.43992
325.50 1.46439
326.00 1.48804
326.50 1.51168
327.00 1.53370
327.50 1.55448
328.00 1.57526
328.50 1.59603
329.00 1.61895
329.50 1.64086
330.00 1.66089
330.50 1.68095
331.00 1.70102
331.50 1.72005
332.00 1.73893
332.50 1.75659
333.00 1.77331
333.50 1.79004
334.00 1.80693
334.50 1.82425
335.00 1.83889
335.50 1.85342
336.00 1.86797
336.50 1.88183
337.00 1.89267
337.50 1.90353
338.00 1.91440
338.50 1.92383
339.00 1.93210
339.50 1.94041
340.00 1.94601
340.50 1.94986
341.00 1.95376
341.50 1.95998
342.00 1.96654
342.50 1.97315
343.00 1.97641
343.50 1.97864
344.00 1.98094
344.50 1.98331
345.00 1.98746
345.50 1.99230
346.00 1.99469
346.50 1.99623
347.00 1.99641
347.50 1.99645
348.00 1.99661
348.50 1.99687
349.00 1.99756
349.50 1.99894
350.00 1.99958
350.50 1.99780
351.00 1.99615
351.50 1.99462
352.00 1.99363
352.50 1.99309
353.00 1.99253
353.50 1.99061
354.00 1.98883
354.50 1.98719
355.00 1.98573
355.50 1.98441
356.00 1.98323
356.50 1.98219
357.00 1.98129
357.50 1.98119
358.00 1.98064
358.50 1.98032
359.00 1.98016
359.50 1.98015
360.00 1.98028
