phi[deg] B[T]
0.00 1.26337
0.50 1.26319
1.00 1.26319
1.50 1.26327
2.00 1.26308
2.50 1.26270
3.00 1.26241
3.50 1.26206
4.00 1.26174
4.50 1.26150
5.00 1.26088
5.50 1.26033
6.00 1.25989
6.50 1.25954
7.00 1.25883
7.50 1.25755
8.00 1.25635
8.50 1.25535
9.00 1.25489
9.50 1.25424
10.00 1.25272
10.50 1.25125
11.00 1.24984
11.50 1.24849
12.00 1.24824
12.50 1.24686
13.00 1.24426
13.50 1.24171
14.00 1.23919
14.50 1.23739
15.00 1.23453
15.50 1.23145
16.00 1.22840
16.50 1.22588
17.00 1.22435
17.50 1.21963
18.00 1.21491
18.50 1.21015
19.00 1.20494
19.50 1.19707
20.00 1.18969
20.50 1.18357
21.00 1.17738
21.50 1.17176
22.00 1.16272
22.50 1.15094
23.00 1.13906
23.50 1.12703
24.00 1.11383
24.50 1.09390
25.00 1.07857
25.50 1.06354
26.00 1.04832
26.50 1.03368
27.00 1.01527
27.50 0.98848
28.00 0.96146
28.50 0.93420
29.00 0.90879
29.50 0.87897
30.00 0.84886
30.50 0.81845
31.00 0.78776
31.50 0.75240
32.00 0.71406
32.50 0.67543
33.00 0.63674
33.50 0.60328
34.00 0.56824
34.50 0.53311
35.00 0.49847
35.50 0.46368
36.00 0.42807
36.50 0.39011
37.00 0.35203
37.50 0.32583
38.00 0.30039
38.50 0.27490
39.00 0.24875
39.50 0.22235
40.00 0.19950
40.50 0.18324
41.00 0.16697
41.50 0.15068
42.00 0.13447
42.50 0.11890
43.00 0.10920
43.50 0.09952
44.00 0.08984
44.50 0.08016
45.00 0.07048
45.50 0.06463
46.00 0.05878
46.50 0.05293
47.00 0.04708
47.50 0.04176
48.00 0.03825
48.50 0.03478
49.00 0.03130
49.50 0.02783
50.00 0.02472
50.50 0.02277
51.00 0.02082
51.50 0.01888
52.00 0.01693
52.50 0.01505
53.00 0.01326
53.50 0.01194
54.00 0.01102
54.50 0.01013
55.00 0.00925
55.50 0.00837
56.00 0.00748
56.50 0.00660
57.00 0.00573
57.50 0.00518
58.00 0.00472
58.50 0.00425
59.00 0.00383
59.50 0.00353
60.00 0.00323
60.50 0.00293
61.00 0.00263
61.50 0.00233
62.00 0.00210
62.50 0.00186
63.00 0.00169
63.50 0.00157
64.00 0.00145
64.50 0.00133
65.00 0.00121
65.50 0.00109
66.00 0.00097
66.50 0.00089
67.00 0.00083
67.50 0.00078
68.00 0.00072
68.50 0.00066
69.00 0.00061
69.50 0.00055
70.00 0.00051
70.50 0.00049
71.00 0.00046
71.50 0.00044
72.00 0.00041
72.50 0.00038
73.00 0.00036
73.50 0.00033
74.00 0.00031
74.50 0.00030
75.00 0.00029
75.50 0.00028
76.00 0.00026
76.50 0.00025
77.00 0.00023
77.50 0.00022
78.00 0.00021
78.50 0.00020
79.00 0.00019
79.50 0.00018
80.00 0.00017
80.50 0.00016
81.00 0.00015
81.50 0.00015
82.00 0.00014
82.50 0.00013
83.00 0.00012
83.50 0.00011
84.00 0.00010
84.50 0.00009
85.00 0.00009
85.50 0.00008
86.00 0.00007
86.50 0.00006
87.00 0.00005
87.50 0.00004
88.00 0.00004
88.50 0.00003
89.00 0.00003
89.50 0.00003
90.00 0.00002
90.00 0.00002
90.50 0.00003
91.00 0.00003
91.50 0.00003
92.00 0.00004
92.50 0.00004
93.00 0.00005
93.50 0.00006
94.00 0.00007
94.50 0.00008
95.00 0.00009
95.50 0.00009
96.00 0.00010
96.50 0.00011
97.00 0.00012
97.50 0.00013
98.00 0.00014
98.50 0.00015
99.00 0.00015
99.50 0.00016
100.00 0.00017
100.50 0.00018
101.00 0.00019
101.50 0.00020
102.00 0.00021
102.50 0.00022
103.00 0.00023
103.50 0.00025
104.00 0.00026
104.50 0.00028
105.00 0.00029
105.50 0.00030
106.00 0.00031
106.50 0.00033
107.00 0.00036
107.50 0.00038
108.00 0.00041
108.50 0.00044
109.00 0.00046
109.50 0.00049
110.00 0.00051
110.50 0.00055
111.00 0.00061
111.50 0.00066
112.00 0.00072
112.50 0.00078
113.00 0.00083
113.50 0.00089
114.00 0.00097
114.50 0.00109
115.00 0.00121
115.50 0.00133
116.00 0.00145
116.50 0.00157
117.00 0.00169
117.50 0.00186
118.00 0.00210
118.50 0.00233
119.00 0.00263
119.50 0.00293
120.00 0.00323
120.50 0.00353
121.00 0.00383
121.50 0.00425
122.00 0.00472
122.50 0.00518
123.00 0.00573
123.50 0.00660
124.00 0.00748
124.50 0.00837
125.00 0.00925
125.50 0.01013
126.00 0.01102
126.50 0.01194
127.00 0.01326
127.50 0.01505
128.00 0.01693
128.50 0.01888
129.00 0.02082
129.50 0.02277
130.00 0.02472
130.50 0.02783
131.00 0.03130
131.50 0.03478
132.00 0.03825
132.50 0.04176
133.00 0.04708
133.50 0.05293
134.00 0.05878
134.50 0.06463
135.00 0.07048
135.50 0.08016
136.00 0.08984
136.50 0.09952
137.00 0.10920
137.50 0.11890
138.00 0.13447
138.50 0.15068
139.00 0.16697
139.50 0.18324
140.00 0.19950
140.50 0.22235
141.00 0.24875
141.50 0.27490
142.00 0.30039
142.50 0.32583
143.00 0.35203
143.50 0.39011
144.00 0.42807
144.50 0.46368
145.00 0.49847
145.50 0.53311
146.00 0.56824
146.50 0.60328
147.00 0.63674
147.50 0.67543
148.00 0.71406
148.50 0.75240
149.00 0.78776
149.50 0.81845
150.00 0.84886
150.50 0.87897
151.00 0.90879
151.50 0.93420
152.00 0.96146
152.50 0.98848
153.00 1.01527
153.50 1.03368
154.00 1.04832
154.50 1.06354
155.00 1.07857
155.50 1.09390
156.00 1.11383
156.50 1.12703
157.00 1.13906
157.50 1.15094
158.00 1.16272
158.50 1.17176
159.00 1.17738
159.50 1.18357
160.00 1.18969
160.50 1.19707
161.00 1.20494
161.50 1.21015
162.00 1.21491
162.50 1.21963
163.00 1.22435
163.50 1.22588
164.00 1.22840
164.50 1.23145
165.00 1.23453
165.50 1.23739
166.00 1.23919
166.50 1.24171
167.00 1.24426
167.50 1.24686
168.00 1.24824
168.50 1.24849
169.00 1.24984
169.50 1.25125
170.00 1.25272
170.50 1.25424
171.00 1.25489
171.50 1.25535
172.00 1.25635
172.50 1.25755
173.00 1.25883
173.50 1.25954
174.00 1.25989
174.50 1.26033
175.00 1.26088
175.50 1.26150
176.00 1.26174
176.50 1.26206
177.00 1.26241
177.50 1.26270
178.00 1.26308
178.50 1.26327
179.00 1.26319
179.50 1.26319
180.00 1.26337
180.00 1.26337
180.50 1.26319
181.00 1.26319
181.50 1.26327
182.00 1.26308
182.50 1.26270
183.00 1.26241
183.50 1.26206
184.00 1.26174
184.50 1.26150
185.00 1.26088
185.50 1.26033
186.00 1.25989
186.50 1.25954
187.00 1.25883
187.50 1.25755
188.00 1.25635
188.50 1.25535
189.00 1.25489
189.50 1.25424
190.00 1.25272
190.50 1.25125
191.00 1.24984
191.50 1.24849
192.00 1.24824
192.50 1.24686
193.00 1.24426
193.50 1.24171
194.00 1.23919
194.50 1.23739
195.00 1.23453
195.50 1.23145
196.00 1.22840
196.50 1.22588
197.00 1.22435
197.50 1.21963
198.00 1.21491
198.50 1.21015
199.00 1.20494
199.50 1.19707
200.00 1.18969
200.50 1.18357
201.00 1.17738
201.50 1.17176
202.00 1.16272
202.50 1.15094
203.00 1.13906
203.50 1.12703
204.00 1.11383
204.50 1.09390
205.00 1.07857
205.50 1.06354
206.00 1.04832
206.50 1.03368
207.00 1.01527
207.50 0.98848
208.00 0.96146
208.50 0.93420
209.00 0.90879
209.50 0.87897
210.00 0.84886
210.50 0.81845
211.00 0.78776
211.50 0.75240
212.00 0.71406
212.50 0.67543
213.00 0.63674
213.50 0.60328
214.00 0.56824
214.50 0.53311
215.00 0.49847
215.50 0.46368
216.00 0.42807
216.50 0.39011
217.00 0.35203
217.50 0.32583
218.00 0.30039
218.50 0.27490
219.00 0.24875
219.50 0.22235
220.00 0.19950
220.50 0.18324
221.00 0.16697
221.50 0.15068
222.00 0.13447
222.50 0.11890
223.00 0.10920
223.50 0.09952
224.00 0.08984
224.50 0.08016
225.00 0.07048
225.50 0.06463
226.00 0.05878
226.50 0.05293
227.00 0.04708
227.50 0.04176
228.00 0.03825
228.50 0.03478
229.00 0.03130
229.50 0.02783
230.00 0.02472
230.50 0.02277
231.00 0.02082
231.50 0.01888
232.00 0.01693
232.50 0.01505
233.00 0.01326
233.50 0.01194
234.00 0.01102
234.50 0.01013
235.00 0.00925
235.50 0.00837
236.00 0.00748
236.50 0.00660
237.00 0.00573
237.50 0.00518
238.00 0.00472
238.50 0.00425
239.00 0.00383
239.50 0.00353
240.00 0.00323
240.50 0.00293
241.00 0.00263
241.50 0.00233
242.00 0.00210
242.50 0.00186
243.00 0.00169
243.50 0.00157
244.00 0.00145
244.50 0.00133
245.00 0.00121
245.50 0.00109
246.00 0.00097
246.50 0.00089
247.00 0.00083
247.50 0.00078
248.00 0.00072
248.50 0.00066
249.00 0.00061
249.50 0.00055
250.00 0.00051
250.50 0.00049
251.00 0.00046
251.50 0.00044
252.00 0.00041
252.50 0.00038
253.00 0.00036
253.50 0.00033
254.00 0.00031
254.50 0.00030
255.00 0.00029
255.50 0.00028
256.00 0.00026
256.50 0.00025
257.00 0.00023
257.50 0.00022
258.00 0.00021
258.50 0.00020
259.00 0.00019
259.50 0.00018
260.00 0.00017
260.50 0.00016
261.00 0.00015
261.50 0.00015
262.00 0.00014
262.50 0.00013
263.00 0.00012
263.50 0.00011
264.00 0.00010
264.50 0.00009
265.00 0.00009
265.50 0.00008
266.00 0.00007
266.50 0.00006
267.00 0.00005
267.50 0.00004
268.00 0.00004
268.50 0.00003
269.00 0.00003
269.50 0.00003
270.00 0.00002
270.00 0.00002
270.50 0.00003
271.00 0.00003
271.50 0.00003
272.00 0.00004
272.50 0.00004
273.00 0.00005
273.50 0.00006
274.00 0.00007
274.50 0.00008
275.00 0.00009
275.50 0.00009
276.00 0.00010
276.50 0.00011
277.00 0.00012
277.50 0.00013
278.00 0.00014
278.50 0.00015
279.00 0.00015
279.50 0.00016
280.00 0.00017
280.50 0.00018
281.00 0.00019
281.50 0.00020
282.00 0.00021
282.50 0.00022
283.00 0.00023
283.50 0.00025
284.00 0.00026
284.50 0.00028
285.00 0.00029
285.50 0.00030
286.00 0.00031
286.50 0.00033
287.00 0.00036
287.50 0.00038
288.00 0.00041
288.50 0.00044
289.00 0.00046
289.50 0.00049
290.00 0.00051
290.50 0.00055
291.00 0.00061
291.50 0.00066
292.00 0.00072
292.50 0.00078
293.00 0.00083
293.50 0.00089
294.00 0.00097
294.50 0.00109
295.00 0.00121
295.50 0.00133
296.00 0.00145
296.50 0.00157
297.00 0.00169
297.50 0.00186
298.00 0.00210
298.50 0.00233
299.00 0.00263
299.50 0.00293
300.00 0.00323
300.50 0.00353
301.00 0.00383
301.50 0.00425
302.00 0.00472
302.50 0.00518
303.00 0.00573
303.50 0.00660
304.00 0.00748
304.50 0.00837
305.00 0.00925
305.50 0.01013
306.00 0.01102
306.50 0.01194
307.00 0.01326
307.50 0.01505
308.00 0.01693
308.50 0.01888
309.00 0.02082
309.50 0.02277
310.00 0.02472
310.50 0.02783
311.00 0.03130
311.50 0.03478
312.00 0.03825
312.50 0.04176
313.00 0.04708
313.50 0.05293
314.00 0.05878
314.50 0.06463
315.00 0.07048
315.50 0.08016
316.00 0.08984
316.50 0.09952
317.00 0.10920
317.50 0.11890
318.00 0.13447
318.50 0.15068
319.00 0.16697
319.50 0.18324
320.00 0.19950
320.50 0.22235
321.00 0.24875
321.50 0.27490
322.00 0.30039
322.50 0.32583
323.00 0.35203
323.50 0.39011
324.00 0.42807
324.50 0.46368
325.00 0.49847
325.50 0.53311
326.00 0.56824
326.50 0.60328
327.00 0.63674
327.50 0.67543
328.00 0.71406
328.50 0.75240
329.00 0.78776
329.50 0.81845
330.00 0.84886
330.50 0.87897
331.00 0.90879
331.50 0.93420
332.00 0.96146
332.50 0.98848
333.00 1.01527
333.50 1.03368
334.00 1.04832
334.50 1.06354
335.00 1.07857
335.50 1.09390
336.00 1.11383
336.50 1.12703
337.00 1.13906
337.50 1.15094
338.00 1.16272
338.50 1.17176
339.00 1.17738
339.50 1.18357
340.00 1.18969
340.50 1.19707
341.00 1.20494
341.50 1.21015
342.00 1.21491
342.50 1.21963
343.00 1.22435
343.50 1.22588
344.00 1.22840
344.50 1.23145
345.00 1.23453
345.50 1.23739
346.00 1.23919
346.50 1.24171
347.00 1.24426
347.50 1.24686
348.00 1.24824
348.50 1.24849
349.00 1.24984
349.50 1.25125
350.00 1.25272
350.50 1.25424
351.00 1.25489
351.50 1.25535
352.00 1.25635
352.50 1.25755
353.00 1.25883
353.50 1.25954
354.00 1.25989
354.50 1.26033
355.00 1.26088
355.50 1.26150
356.00 1.26174
356.50 1.26206
357.00 1.26241
357.50 1.26270
358.00 1.26308
358.50 1.26327
359.00 1.26319
359.50 1.26319
360.00 1.26337
