phi[deg] B[T]
0.00 1.97789
0.50 1.97787
1.00 1.97800
1.50 1.97828
2.00 1.97871
2.50 1.97936
3.00 1.97961
3.50 1.98071
4.00 1.98196
4.50 1.98334
5.00 1.98487
5.50 1.98653
6.00 1.98848
6.50 1.99057
7.00 1.99281
7.50 1.99357
8.00 1.99432
8.50 1.99553
9.00 1.99731
9.50 1.99920
10.00 2.00123
10.50 2.00076
11.00 1.99953
11.50 1.99894
12.00 1.99874
12.50 1.99866
13.00 1.99868
13.50 1.99858
14.00 1.99715
14.50 1.99485
15.00 1.99006
15.50 1.98594
16.00 1.98351
16.50 1.98115
17.00 1.97887
17.50 1.97559
18.00 1.96908
18.50 1.96264
19.00 1.95652
19.50 1.95259
20.00 1.94871
20.50 1.94319
21.00 1.93510
21.50 1.92705
22.00 1.91786
22.50 1.90725
23.00 1.89666
23.50 1.88609
24.00 1.87267
24.50 1.85861
25.00 1.84458
25.50 1.83043
26.00 1.81354
26.50 1.79720
27.00 1.78106
27.50 1.76493
28.00 1.74779
28.50 1.72936
29.00 1.71079
29.50 1.69127
30.00 1.67176
30.50 1.65228
31.00 1.63078
31.50 1.60820
32.00 1.58785
32.50 1.56749
33.00 1.54714
33.50 1.52545
34.00 1.50201
34.50 1.47856
35.00 1.45421
35.50 1.42887
36.00 1.40353
36.50 1.37820
37.00 1.35259
37.50 1.32632
38.00 1.30050
38.50 1.27469
39.00 1.24887
39.50 1.22289
40.00 1.19678
40.50 1.17164
41.00 1.14651
41.50 1.12137
42.00 1.09594
42.50 1.07149
43.00 1.04771
43.50 1.02404
44.00 1.00067
44.50 0.97729
45.00 0.95370
45.50 0.93109
46.00 0.90899
46.50 0.88687
47.00 0.86555
47.50 0.84490
48.00 0.82317
48.50 0.80064
49.00 0.78028
49.50 0.76024
50.00 0.73985
50.50 0.71827
51.00 0.69890
51.50 0.67946
52.00 0.65998
52.50 0.64033
53.00 0.61774
53.50 0.59690
54.00 0.57681
54.50 0.55666
55.00 0.53643
55.50 0.51593
56.00 0.49353
56.50 0.47324
57.00 0.45286
57.50 0.43240
58.00 0.41192
58.50 0.39224
59.00 0.37249
59.50 0.35074
60.00 0.32891
60.50 0.30703
61.00 0.28508
61.50 0.26356
62.00 0.24755
62.50 0.23172
63.00 0.21584
63.50 0.19991
64.00 0.18392
64.50 0.16716
65.00 0.15616
65.50 0.14536
66.00 0.13455
66.50 0.12369
67.00 0.11271
67.50 0.10172
68.00 0.09297
68.50 0.08691
69.00 0.08085
69.50 0.07478
70.00 0.06861
70.50 0.06242
71.00 0.05623
71.50 0.05041
72.00 0.04681
72.50 0.04345
73.00 0.04009
73.50 0.03673
74.00 0.03338
74.50 0.03003
75.00 0.02763
75.50 0.02578
76.00 0.02393
76.50 0.02208
77.00 0.02023
77.50 0.01831
78.00 0.01639
78.50 0.01515
79.00 0.01416
79.50 0.01317
80.00 0.01218
80.50 0.01119
81.00 0.01020
81.50 0.00923
82.00 0.00854
82.50 0.00798
83.00 0.00744
83.50 0.00690
84.00 0.00637
84.50 0.00589
85.00 0.00561
85.50 0.00532
86.00 0.00504
86.50 0.00475
87.00 0.00445
87.50 0.00435
88.00 0.00424
88.50 0.00412
89.00 0.00400
89.50 0.00388
90.00 0.00376
90.00 0.00376
90.50 0.00388
91.00 0.00400
91.50 0.00412
92.00 0.00424
92.50 0.00435
93.00 0.00445
93.50 0.00475
94.00 0.00504
94.50 0.00532
95.00 0.00561
95.50 0.00589
96.00 0.00637
96.50 0.00690
97.00 0.00744
97.50 0.00798
98.00 0.00854
98.50 0.00923
99.00 0.01020
99.50 0.01119
100.00 0.01218
100.50 0.01317
101.00 0.01416
101.50 0.01515
102.00 0.01639
102.50 0.01831
103.00 0.02023
103.50 0.02208
104.00 0.02393
104.50 0.02578
105.00 0.02763
105.50 0.03003
106.00 0.03338
106.50 0.03673
107.00 0.04009
107.50 0.04345
108.00 0.04681
108.50 0.05041
109.00 0.05623
109.50 0.06242
110.00 0.06861
110.50 0.07478
111.00 0.08085
111.50 0.08691
112.00 0.09297
112.50 0.10172
113.00 0.11271
113.50 0.12369
114.00 0.13455
114.50 0.14536
115.00 0.15616
115.50 0.16716
116.00 0.18392
116.50 0.19991
117.00 0.21584
117.50 0.23172
118.00 0.24755
118.50 0.26356
119.00 0.28508
119.50 0.30703
120.00 0.32891
120.50 0.35074
121.00 0.37249
121.50 0.39224
122.00 0.41192
122.50 0.43240
123.00 0.45286
123.50 0.47324
124.00 0.49353
124.50 0.51593
125.00 0.53643
125.50 0.55666
126.00 0.57681
126.50 0.59690
127.00 0.61774
127.50 0.64033
128.00 0.65998
128.50 0.67946
129.00 0.69890
129.50 0.71827
130.00 0.73985
130.50 0.76024
131.00 0.78028
131.50 0.80064
132.00 0.82317
132.50 0.84490
133.00 0.86555
133.50 0.88687
134.00 0.90899
134.50 0.93109
135.00 0.95370
135.50 0.97729
136.00 1.00067
136.50 1.02404
137.00 1.04771
137.50 1.07149
138.00 1.09594
138.50 1.12137
139.00 1.14651
139.50 1.17164
140.00 1.19678
140.50 1.22289
141.00 1.24887
141.50 1.27469
142.00 1.30050
142.50 1.32632
143.00 1.35259
143.50 1.37820
144.00 1.40353
144.50 1.42887
145.00 1.45421
145.50 1.47856
146.00 1.50201
146.50 1.52545
147.00 1.54714
147.50 1.56749
148.00 1.58785
148.50 1.60820
149.00 1.63078
149.50 1.65228
150.00 1.67176
150.50 1.69127
151.00 1.71079
151.50 1.72936
152.00 1.74779
152.50 1.76493
153.00 1.78106
153.50 1.79720
154.00 1.81354
154.50 1.83043
155.00 1.84458
155.50 1.85861
156.00 1.87267
156.50 1.88609
157.00 1.89666
157.50 1.90725
158.00 1.91786
158.50 1.92705
159.00 1.93510
159.50 1.94319
160.00 1.94871
160.50 1.95259
161.00 1.95652
161.50 1.96264
162.00 1.96908
162.50 1.97559
163.00 1.97887
163.50 1.98115
164.00 1.98351
164.50 1.98594
165.00 1.99006
165.50 1.99485
166.00 1.99715
166.50 1.99858
167.00 1.99868
167.50 1.99866
168.00 1.99874
168.50 1.99894
169.00 1.99953
169.50 2.00076
170.00 2.00123
170.50 1.99920
171.00 1.99731
171.50 1.99553
172.00 1.99432
172.50 1.99357
173.00 1.99281
173.50 1.99057
174.00 1.98848
174.50 1.98653
175.00 1.98487
175.50 1.98334
176.00 1.98196
176.50 1.98071
177.00 1.97961
177.50 1.97936
178.00 1.97871
178.50 1.97828
179.00 1.97800
179.50 1.97787
180.00 1.97789
180.00 1.97789
180.50 1.97787
181.00 1.97800
181.50 1.97828
182.00 1.97871
182.50 1.97936
183.00 1.97961
183.50 1.98071
184.00 1.98196
184.50 1.98334
185.00 1.98487
185.50 1.98653
186.00 1.98848
186.50 1.99057
187.00 1.99281
187.50 1.99357
188.00 1.99432
188.50 1.99553
189.00 1.99731
189.50 1.99920
190.00 2.00123
190.50 2.00076
191.00 1.99953
191.50 1.99894
192.00 1.99874
192.50 1.99866
193.00 1.99868
193.50 1.99858
194.00 1.99715
194.50 1.99485
195.00 1.99006
195.50 1.98594
196.00 1.98351
196.50 1.98115
197.00 1.97887
197.50 1.97559
198.00 1.96908
198.50 1.96264
199.00 1.95652
199.50 1.95259
200.00 1.94871
200.50 1.94319
201.00 1.93510
201.50 1.92705
202.00 1.91786
202.50 1.90725
203.00 1.89666
203.50 1.88609
204.00 1.87267
204.50 1.85861
205.00 1.84458
205.50 1.83043
206.00 1.81354
206.50 1.79720
207.00 1.78106
207.50 1.76493
208.00 1.74779
208.50 1.72936
209.00 1.71079
209.50 1.69127
210.00 1.67176
210.50 1.65228
211.00 1.63078
211.50 1.60820
212.00 1.58785
212.50 1.56749
213.00 1.54714
213.50 1.52545
214.00 1.50201
214.50 1.47856
215.00 1.45421
215.50 1.42887
216.00 1.40353
216.50 1.37820
217.00 1.35259
217.50 1.32632
218.00 1.30050
218.50 1.27469
219.00 1.24887
219.50 1.22289
220.00 1.19678
220.50 1.17164
221.00 1.14651
221.50 1.12137
222.00 1.09594
222.50 1.07149
223.00 1.04771
223.50 1.02404
224.00 1.00067
224.50 0.97729
225.00 0.95370
225.50 0.93109
226.00 0.90899
226.50 0.88687
227.00 0.86555
227.50 0.84490
228.00 0.82317
228.50 0.80064
229.00 0.78028
229.50 0.76024
230.00 0.73985
230.50 0.71827
231.00 0.69890
231.50 0.67946
232.00 0.65998
232.50 0.64033
233.00 0.61774
233.50 0.59690
234.00 0.57681
234.50 0.55666
235.00 0.53643
235.50 0.51593
236.00 0.49353
236.50 0.47324
237.00 0.45286
237.50 0.43240
238.00 0.41192
238.50 0.39224
239.00 0.37249
239.50 0.35074
240.00 0.32891
240.50 0.30703
241.00 0.28508
241.50 0.26356
242.00 0.24755
242.50 0.23172
243.00 0.21584
243.50 0.19991
244.00 0.18392
244.50 0.16716
245.00 0.15616
245.50 0.14536
246.00 0.13455
246.50 0.12369
247.00 0.11271
247.50 0.10172
248.00 0.09297
248.50 0.08691
249.00 0.08085
249.50 0.07478
250.00 0.06861
250.50 0.06242
251.00 0.05623
251.50 0.05041
252.00 0.04681
252.50 0.04345
253.00 0.04009
253.50 0.03673
254.00 0.03338
254.50 0.03003
255.00 0.02763
255.50 0.02578
256.00 0.02393
256.50 0.02208
257.00 0.02023
257.50 0.01831
258.00 0.01639
258.50 0.01515
259.00 0.01416
259.50 0.01317
260.00 0.01218
260.50 0.01119
261.00 0.01020
261.50 0.00923
262.00 0.00854
262.50 0.00798
263.00 0.00744
263.50 0.00690
264.00 0.00637
264.50 0.00589
265.00 0.00561
265.50 0.00532
266.00 0.00504
266.50 0.00475
267.00 0.00445
267.50 0.00435
268.00 0.00424
268.50 0.00412
269.00 0.00400
269.50 0.00388
270.00 0.00376
270.00 0.00376
270.50 0.00388
271.00 0.00400
271.50 0.00412
272.00 0.00424
272.50 0.00435
273.00 0.00445
273.50 0.00475
274.00 0.00504
274.50 0.00532
275.00 0.00561
275.50 0.00589
276.00 0.00637
276.50 0.00690
277.00 0.00744
277.50 0.00798
278.00 0.00854
278.50 0.00923
279.00 0.01020
279.50 0.01119
280.00 0.01218
280.50 0.01317
281.00 0.01416
281.50 0.01515
282.00 0.01639
282.50 0.01831
283.00 0.02023
283.50 0.02208
284.00 0.02393
284.50 0.02578
285.00 0.02763
285.50 0.03003
286.00 0.03338
286.50 0.03673
287.00 0.04009
287.50 0.04345
288.00 0.04681
288.50 0.05041
289.00 0.05623
289.50 0.06242
290.00 0.06861
290.50 0.07478
291.00 0.08085
291.50 0.08691
292.00 0.09297
292.50 0.10172
293.00 0.11271
293.50 0.12369
294.00 0.13455
294.50 0.14536
295.00 0.15616
295.50 0.16716
296.00 0.18392
296.50 0.19991
297.00 0.21584
297.50 0.23172
298.00 0.24755
298.50 0.26356
299.00 0.28508
299.50 0.30703
300.00 0.32891
300.50 0.35074
301.00 0.37249
301.50 0.39224
302.00 0.41192
302.50 0.43240
303.00 0.45286
303.50 0.47324
304.00 0.49353
304.50 0.51593
305.00 0.53643
305.50 0.55666
306.00 0.57681
306.50 0.59690
307.00 0.61774
307.50 0.64033
308.00 0.65998
308.50 0.67946
309.00 0.69890
309.50 0.71827
310.00 0.73985
310.50 0.76024
311.00 0.78028
311.50 0.80064
312.00 0.82317
312.50 0.84490
313.00 0.86555
313.50 0.88687
314.00 0.90899
314.50 0.93109
315.00 0.95370
315.50 0.97729
316.00 1.00067
316.50 1.02404
317.00 1.04771
317.50 1.07149
318.00 1.09594
318.50 1.12137
319.00 1.14651
319.50 1.17164
320.00 1.19678
320.50 1.22289
321.00 1.24887
321.50 1.27469
322.00 1.30050
322.50 1.32632
323.00 1.35259
323.50 1.37820
324.00 1.40353
324.50 1.42887
325.00 1.45421
325.50 1.47856
326.00 1.50201
326.50 1.52545
327.00 1.54714
327.50 1.56749
328.00 1.58785
328.50 1.60820
329.00 1.63078
329.50 1.65228
330.00 1.67176
330.50 1.69127
331.00 1.71079
331.50 1.72936
332.00 1.74779
332.50 1.76493
333.00 1.78106
333.50 1.79720
334.00 1.81354
334.50 1.83043
335.00 1.84458
335.50 1.85861
336.00 1.87267
336.50 1.88609
337.00 1.89666
337.50 1.90725
338.00 1.91786
338.50 1.92705
339.00 1.93510
339.50 1.94319
340.00 1.94871
340.50 1.95259
341.00 1.95652
341.50 1.96264
342.00 1.96908
342.50 1.97559
343.00 1.97887
343.50 1.98115
344.00 1.98351
344.50 1.98594
345.00 1.99006
345.50 1.99485
346.00 1.99715
346.50 1.99858
347.00 1.99868
347.50 1.99866
348.00 1.99874
348.50 1.99894
349.00 1.99953
349.50 2.00076
350.00 2.00123
350.50 1.99920
351.00 1.99731
351.50 1.99553
352.00 1.99432
352.50 1.99357
353.00 1.99281
353.50 1.99057
354.00 1.98848
354.50 1.98653
355.00 1.98487
355.50 1.98334
356.00 1.98196
356.50 1.98071
357.00 1.97961
357.50 1.97936
358.00 1.97871
358.50 1.97828
359.00 1.97800
359.50 1.97787
360.00 1.97789
