phi[deg] B[T]
0.00 1.27437
0.50 1.27313
1.00 1.27197
1.50 1.27084
2.00 1.26898
2.50 1.26723
3.00 1.26558
3.50 1.26460
4.00 1.26378
4.50 1.26264
5.00 1.26161
5.50 1.26131
6.00 1.26166
6.50 1.26237
7.00 1.26395
7.50 1.26564
8.00 1.26718
8.50 1.26877
9.00 1.27059
9.50 1.27415
10.00 1.27728
10.50 1.28001
11.00 1.28100
11.50 1.28200
12.00 1.28252
12.50 1.28049
13.00 1.27854
13.50 1.27688
14.00 1.27533
14.50 1.27288
15.00 1.26959
15.50 1.26656
16.00 1.26453
16.50 1.26259
17.00 1.26122
17.50 1.26017
18.00 1.25890
18.50 1.25726
19.00 1.25572
19.50 1.25649
20.00 1.25770
20.50 1.25616
21.00 1.25308
21.50 1.25005
22.00 1.24738
22.50 1.24913
23.00 1.24153
23.50 1.23400
24.00 1.22650
24.50 1.21901
25.00 1.20559
25.50 1.19027
26.00 1.17685
26.50 1.16371
27.00 1.14987
27.50 1.13411
28.00 1.11865
28.50 1.10489
29.00 1.09119
29.50 1.07757
30.00 1.06413
30.50 1.05211
31.00 1.03997
31.50 1.02716
32.00 1.01441
32.50 1.00234
33.00 0.99183
33.50 0.98074
34.00 0.96733
34.50 0.95396
35.00 0.94126
35.50 0.92925
36.00 0.91559
36.50 0.90026
37.00 0.88495
37.50 0.86986
38.00 0.85505
38.50 0.83921
39.00 0.82283
39.50 0.80640
40.00 0.78999
40.50 0.77347
41.00 0.75673
41.50 0.73940
42.00 0.72177
42.50 0.70426
43.00 0.68652
43.50 0.66834
44.00 0.65037
44.50 0.63216
45.00 0.61370
45.50 0.59525
46.00 0.57798
46.50 0.56118
47.00 0.54489
47.50 0.53073
48.00 0.51829
48.50 0.50824
49.00 0.49874
49.50 0.49102
50.00 0.48728
50.50 0.48607
51.00 0.47913
51.50 0.47219
52.00 0.46697
52.50 0.46510
53.00 0.46004
53.50 0.45051
54.00 0.44087
54.50 0.43173
55.00 0.42365
55.50 0.41205
56.00 0.39515
56.50 0.37810
57.00 0.36089
57.50 0.34352
58.00 0.32336
58.50 0.30031
59.00 0.27644
59.50 0.24642
60.00 0.21627
60.50 0.19302
61.00 0.17165
61.50 0.14974
62.00 0.12403
62.50 0.10293
63.00 0.08619
63.50 0.07417
64.00 0.06233
64.50 0.05121
65.00 0.04355
65.50 0.03589
66.00 0.02963
66.50 0.02439
67.00 0.02105
67.50 0.01771
68.00 0.01436
68.50 0.01208
69.00 0.01038
69.50 0.00866
70.00 0.00694
70.50 0.00605
71.00 0.00516
71.50 0.00423
72.00 0.00352
72.50 0.00305
73.00 0.00258
73.50 0.00212
74.00 0.00188
74.50 0.00165
75.00 0.00142
75.50 0.00122
76.00 0.00111
76.50 0.00101
77.00 0.00093
77.50 0.00084
78.00 0.00078
78.50 0.00072
79.00 0.00067
79.50 0.00064
80.00 0.00061
80.50 0.00058
81.00 0.00054
81.50 0.00051
82.00 0.00048
82.50 0.00045
83.00 0.00042
83.50 0.00039
84.00 0.00037
84.50 0.00034
85.00 0.00031
85.50 0.00029
86.00 0.00026
86.50 0.00023
87.00 0.00020
87.50 0.00018
88.00 0.00016
88.50 0.00013
89.00 0.00012
89.50 0.00011
90.00 0.00010
90.00 0.00010
90.50 0.00011
91.00 0.00012
91.50 0.00013
92.00 0.00016
92.50 0.00018
93.00 0.00020
93.50 0.00023
94.00 0.00026
94.50 0.00029
95.00 0.00031
95.50 0.00034
96.00 0.00037
96.50 0.00039
97.00 0.00042
97.50 0.00045
98.00 0.00048
98.50 0.00051
99.00 0.00054
99.50 0.00058
100.00 0.00061
100.50 0.00064
101.00 0.00067
101.50 0.00072
102.00 0.00078
102.50 0.00084
103.00 0.00093
103.50 0.00101
104.00 0.00111
104.50 0.00122
105.00 0.00142
105.50 0.00165
106.00 0.00188
106.50 0.00212
107.00 0.00258
107.50 0.00305
108.00 0.00352
108.50 0.00423
109.00 0.00516
109.50 0.00605
110.00 0.00694
110.50 0.00866
111.00 0.01038
111.50 0.01208
112.00 0.01436
112.50 0.01771
113.00 0.02105
113.50 0.02439
114.00 0.02963
114.50 0.03589
115.00 0.04355
115.50 0.05121
116.00 0.06233
116.50 0.07417
117.00 0.08619
117.50 0.10293
118.00 0.12403
118.50 0.14974
119.00 0.17165
119.50 0.19302
120.00 0.21627
120.50 0.24642
121.00 0.27644
121.50 0.30031
122.00 0.32336
122.50 0.34352
123.00 0.36089
123.50 0.37810
124.00 0.39515
124.50 0.41205
125.00 0.42365
125.50 0.43173
126.00 0.44087
126.50 0.45051
127.00 0.46004
127.50 0.46510
128.00 0.46697
128.50 0.47219
129.00 0.47913
129.50 0.48607
130.00 0.48728
130.50 0.49102
131.00 0.49874
131.50 0.50824
132.00 0.51829
132.50 0.53073
133.00 0.54489
133.50 0.56118
134.00 0.57798
134.50 0.59525
135.00 0.61370
135.50 0.63216
136.00 0.65037
136.50 0.66834
137.00 0.68652
137.50 0.70426
138.00 0.72177
138.50 0.73940
139.00 0.75673
139.50 0.77347
140.00 0.78999
140.50 0.80640
141.00 0.82283
141.50 0.83921
142.00 0.85505
142.50 0.86986
143.00 0.88495
143.50 0.90026
144.00 0.91559
144.50 0.92925
145.00 0.94126
145.50 0.95396
146.00 0.96733
146.50 0.98074
147.00 0.99183
147.50 1.00234
148.00 1.01441
148.50 1.02716
149.00 1.03997
149.50 1.05211
150.00 1.06413
150.50 1.07757
151.00 1.09119
151.50 1.10489
152.00 1.11865
152.50 1.13411
153.00 1.14987
153.50 1.16371
154.00 1.17685
154.50 1.19027
155.00 1.20559
155.50 1.21901
156.00 1.22650
156.50 1.23400
157.00 1.24153
157.50 1.24913
158.00 1.24738
158.50 1.25005
159.00 1.25308
159.50 1.25616
160.00 1.25770
160.50 1.25649
161.00 1.25572
161.50 1.25726
162.00 1.25890
162.50 1.26017
163.00 1.26122
163.50 1.26259
164.00 1.26453
164.50 1.26656
165.00 1.26959
165.50 1.27288
166.00 1.27533
166.50 1.27688
167.00 1.27854
167.50 1.28049
168.00 1.28252
168.50 1.28200
169.00 1.28100
169.50 1.28001
170.00 1.27728
170.50 1.27415
171.00 1.27059
171.50 1.26877
172.00 1.26718
172.50 1.26564
173.00 1.26395
173.50 1.26237
174.00 1.26166
174.50 1.26131
175.00 1.26161
175.50 1.26264
176.00 1.26378
176.50 1.26460
177.00 1.26558
177.50 1.26723
178.00 1.26898
178.50 1.27084
179.00 1.27197
179.50 1.27313
180.00 1.27437
180.00 1.27437
180.50 1.27313
181.00 1.27197
181.50 1.27084
182.00 1.26898
182.50 1.26723
183.00 1.26558
183.50 1.26460
184.00 1.26378
184.50 1.26264
185.00 1.26161
185.50 1.26131
186.00 1.26166
186.50 1.26237
187.00 1.26395
187.50 1.26564
188.00 1.26718
188.50 1.26877
189.00 1.27059
189.50 1.27415
190.00 1.27728
190.50 1.28001
191.00 1.28100
191.50 1.28200
192.00 1.28252
192.50 1.28049
193.00 1.27854
193.50 1.27688
194.00 1.27533
194.50 1.27288
195.00 1.26959
195.50 1.26656
196.00 1.26453
196.50 1.26259
197.00 1.26122
197.50 1.26017
198.00 1.25890
198.50 1.25726
199.00 1.25572
199.50 1.25649
200.00 1.25770
200.50 1.25616
201.00 1.25308
201.50 1.25005
202.00 1.24738
202.50 1.24913
203.00 1.24153
203.50 1.23400
204.00 1.22650
204.50 1.21901
205.00 1.20559
205.50 1.19027
206.00 1.17685
206.50 1.16371
207.00 1.14987
207.50 1.13411
208.00 1.11865
208.50 1.10489
209.00 1.09119
209.50 1.07757
210.00 1.06413
210.50 1.05211
211.00 1.03997
211.50 1.02716
212.00 1.01441
212.50 1.00234
213.00 0.99183
213.50 0.98074
214.00 0.96733
214.50 0.95396
215.00 0.94126
215.50 0.92925
216.00 0.91559
216.50 0.90026
217.00 0.88495
217.50 0.86986
218.00 0.85505
218.50 0.83921
219.00 0.82283
219.50 0.80640
220.00 0.78999
220.50 0.77347
221.00 0.75673
221.50 0.73940
222.00 0.72177
222.50 0.70426
223.00 0.68652
223.50 0.66834
224.00 0.65037
224.50 0.63216
225.00 0.61370
225.50 0.59525
226.00 0.57798
226.50 0.56118
227.00 0.54489
227.50 0.53073
228.00 0.51829
228.50 0.50824
229.00 0.49874
229.50 0.49102
230.00 0.48728
230.50 0.48607
231.00 0.47913
231.50 0.47219
232.00 0.46697
232.50 0.46510
233.00 0.46004
233.50 0.45051
234.00 0.44087
234.50 0.43173
235.00 0.42365
235.50 0.41205
236.00 0.39515
236.50 0.37810
237.00 0.36089
237.50 0.34352
238.00 0.32336
238.50 0.30031
239.00 0.27644
239.50 0.24642
240.00 0.21627
240.50 0.19302
241.00 0.17165
241.50 0.14974
242.00 0.12403
242.50 0.10293
243.00 0.08619
243.50 0.07417
244.00 0.06233
244.50 0.05121
245.00 0.04355
245.50 0.03589
246.00 0.02963
246.50 0.02439
247.00 0.02105
247.50 0.01771
248.00 0.01436
248.50 0.01208
249.00 0.01038
249.50 0.00866
250.00 0.00694
250.50 0.00605
251.00 0.00516
251.50 0.00423
252.00 0.00352
252.50 0.00305
253.00 0.00258
253.50 0.00212
254.00 0.00188
254.50 0.00165
255.00 0.00142
255.50 0.00122
256.00 0.00111
256.50 0.00101
257.00 0.00093
257.50 0.00084
258.00 0.00078
258.50 0.00072
259.00 0.00067
259.50 0.00064
260.00 0.00061
260.50 0.00058
261.00 0.00054
261.50 0.00051
262.00 0.00048
262.50 0.00045
263.00 0.00042
263.50 0.00039
264.00 0.00037
264.50 0.00034
265.00 0.00031
265.50 0.00029
266.00 0.00026
266.50 0.00023
267.00 0.00020
267.50 0.00018
268.00 0.00016
268.50 0.00013
269.00 0.00012
269.50 0.00011
270.00 0.00010
270.00 0.00010
270.50 0.00011
271.00 0.00012
271.50 0.00013
272.00 0.00016
272.50 0.00018
273.00 0.00020
273.50 0.00023
274.00 0.00026
274.50 0.00029
275.00 0.00031
275.50 0.00034
276.00 0.00037
276.50 0.00039
277.00 0.00042
277.50 0.00045
278.00 0.00048
278.50 0.00051
279.00 0.00054
279.50 0.00058
280.00 0.00061
280.50 0.00064
281.00 0.00067
281.50 0.00072
282.00 0.00078
282.50 0.00084
283.00 0.00093
283.50 0.00101
284.00 0.00111
284.50 0.00122
285.00 0.00142
285.50 0.00165
286.00 0.00188
286.50 0.00212
287.00 0.00258
287.50 0.00305
288.00 0.00352
288.50 0.00423
289.00 0.00516
289.50 0.00605
290.00 0.00694
290.50 0.00866
291.00 0.01038
291.50 0.01208
292.00 0.01436
292.50 0.01771
293.00 0.02105
293.50 0.02439
294.00 0.02963
294.50 0.03589
295.00 0.04355
295.50 0.05121
296.00 0.06233
296.50 0.07417
297.00 0.08619
297.50 0.10293
298.00 0.12403
298.50 0.14974
299.00 0.17165
299.50 0.19302
300.00 0.21627
300.50 0.24642
301.00 0.27644
301.50 0.30031
302.00 0.32336
302.50 0.34352
303.00 0.36089
303.50 0.37810
304.00 0.39515
304.50 0.41205
305.00 0.42365
305.50 0.43173
306.00 0.44087
306.50 0.45051
307.00 0.46004
307.50 0.46510
308.00 0.46697
308.50 0.47219
309.00 0.47913
309.50 0.48607
310.00 0.48728
310.50 0.49102
311.00 0.49874
311.50 0.50824
312.00 0.51829
312.50 0.53073
313.00 0.54489
313.50 0.56118
314.00 0.57798
314.50 0.59525
315.00 0.61370
315.50 0.63216
316.00 0.65037
316.50 0.66834
317.00 0.68652
317.50 0.70426
318.00 0.72177
318.50 0.73940
319.00 0.75673
319.50 0.77347
320.00 0.78999
320.50 0.80640
321.00 0.82283
321.50 0.83921
322.00 0.85505
322.50 0.86986
323.00 0.88495
323.50 0.90026
324.00 0.91559
324.50 0.92925
325.00 0.94126
325.50 0.95396
326.00 0.96733
326.50 0.98074
327.00 0.99183
327.50 1.00234
328.00 1.01441
328.50 1.02716
329.00 1.03997
329.50 1.05211
330.00 1.06413
330.50 1.07757
331.00 1.09119
331.50 1.10489
332.00 1.11865
332.50 1.13411
333.00 1.14987
333.50 1.16371
334.00 1.17685
334.50 1.19027
335.00 1.20559
335.50 1.21901
336.00 1.22650
336.50 1.23400
337.00 1.24153
337.50 1.24913
338.00 1.24738
338.50 1.25005
339.00 1.25308
339.50 1.25616
340.00 1.25770
340.50 1.25649
341.00 1.25572
341.50 1.25726
342.00 1.25890
342.50 1.26017
343.00 1.26122
343.50 1.26259
344.00 1.26453
344.50 1.26656
345.00 1.26959
345.50 1.27288
346.00 1.27533
346.50 1.27688
347.00 1.27854
347.50 1.28049
348.00 1.28252
348.50 1.28200
349.00 1.28100
349.50 1.28001
350.00 1.27728
350.50 1.27415
351.00 1.27059
351.50 1.26877
352.00 1.26718
352.50 1.26564
353.00 1.26395
353.50 1.26237
354.00 1.26166
354.50 1.26131
355.00 1.26161
355.50 1.26264
356.00 1.26378
356.50 1.26460
357.00 1.26558
357.50 1.26723
358.00 1.26898
358.50 1.27084
359.00 1.27197
359.50 1.27313
360.00 1.27437
