phi[deg] B[T]
0.00 1.81708
0.50 1.81646
1.00 1.81598
1.50 1.81562
2.00 1.81538
2.50 1.81528
3.00 1.81501
3.50 1.81493
4.00 1.81498
4.50 1.81515
5.00 1.81524
5.50 1.81437
6.00 1.81363
6.50 1.81304
7.00 1.81351
7.50 1.81409
8.00 1.81447
8.50 1.81440
9.00 1.81371
9.50 1.81181
10.00 1.81001
10.50 1.80832
11.00 1.80673
11.50 1.80535
12.00 1.80440
12.50 1.80355
13.00 1.80124
13.50 1.79893
14.00 1.79527
14.50 1.79128
15.00 1.78738
15.50 1.78357
16.00 1.77985
16.50 1.77622
17.00 1.77424
17.50 1.77251
18.00 1.76795
18.50 1.76330
19.00 1.75609
19.50 1.74893
20.00 1.74182
20.50 1.73477
21.00 1.72777
21.50 1.72123
22.00 1.71481
22.50 1.70727
23.00 1.69757
23.50 1.68793
24.00 1.67611
24.50 1.66397
25.00 1.65186
25.50 1.63978
26.00 1.62775
26.50 1.61585
27.00 1.60592
27.50 1.59584
28.00 1.58535
28.50 1.57198
29.00 1.55592
29.50 1.53985
30.00 1.52377
30.50 1.50768
31.00 1.49157
31.50 1.47604
32.00 1.46077
32.50 1.44179
33.00 1.42279
33.50 1.40339
34.00 1.38357
34.50 1.36403
35.00 1.34481
35.50 1.32555
36.00 1.30462
36.50 1.27948
37.00 1.25597
37.50 1.23539
38.00 1.21473
38.50 1.19377
39.00 1.16643
39.50 1.13900
40.00 1.11354
40.50 1.08727
41.00 1.05913
41.50 1.03085
42.00 1.00294
42.50 0.97346
43.00 0.94433
43.50 0.91481
44.00 0.88226
44.50 0.85101
45.00 0.82098
45.50 0.78816
46.00 0.75540
46.50 0.72313
47.00 0.68903
47.50 0.65683
48.00 0.62406
48.50 0.58974
49.00 0.55782
49.50 0.52576
50.00 0.49199
50.50 0.45761
51.00 0.42531
51.50 0.39793
52.00 0.37045
52.50 0.34205
53.00 0.31150
53.50 0.28088
54.00 0.25524
54.50 0.23201
55.00 0.21004
55.50 0.19254
56.00 0.17504
56.50 0.15780
57.00 0.14213
57.50 0.12645
58.00 0.11348
58.50 0.10422
59.00 0.09495
59.50 0.08590
60.00 0.07719
60.50 0.06849
61.00 0.06023
61.50 0.05542
62.00 0.05061
62.50 0.04580
63.00 0.04098
63.50 0.03615
64.00 0.03205
64.50 0.02954
65.00 0.02704
65.50 0.02453
66.00 0.02203
66.50 0.01952
67.00 0.01730
67.50 0.01588
68.00 0.01446
68.50 0.01302
69.00 0.01154
69.50 0.01022
70.00 0.00944
70.50 0.00866
71.00 0.00787
71.50 0.00709
72.00 0.00630
72.50 0.00550
73.00 0.00507
73.50 0.00468
74.00 0.00428
74.50 0.00389
75.00 0.00350
75.50 0.00311
76.00 0.00272
76.50 0.00241
77.00 0.00223
77.50 0.00205
78.00 0.00187
78.50 0.00168
79.00 0.00150
79.50 0.00132
80.00 0.00119
80.50 0.00110
81.00 0.00101
81.50 0.00092
82.00 0.00083
82.50 0.00075
83.00 0.00068
83.50 0.00063
84.00 0.00058
84.50 0.00052
85.00 0.00047
85.50 0.00043
86.00 0.00040
86.50 0.00037
87.00 0.00034
87.50 0.00032
88.00 0.00030
88.50 0.00029
89.00 0.00028
89.50 0.00027
90.00 0.00025
90.00 0.00025
90.50 0.00027
91.00 0.00028
91.50 0.00029
92.00 0.00030
92.50 0.00032
93.00 0.00034
93.50 0.00037
94.00 0.00040
94.50 0.00043
95.00 0.00047
95.50 0.00052
96.00 0.00058
96.50 0.00063
97.00 0.00068
97.50 0.00075
98.00 0.00083
98.50 0.00092
99.00 0.00101
99.50 0.00110
100.00 0.00119
100.50 0.00132
101.00 0.00150
101.50 0.00168
102.00 0.00187
102.50 0.00205
103.00 0.00223
103.50 0.00241
104.00 0.00272
104.50 0.00311
105.00 0.00350
105.50 0.00389
106.00 0.00428
106.50 0.00468
107.00 0.00507
107.50 0.00550
108.00 0.00630
108.50 0.00709
109.00 0.00787
109.50 0.00866
110.00 0.00944
110.50 0.01022
111.00 0.01154
111.50 0.01302
112.00 0.01446
112.50 0.01588
113.00 0.01730
113.50 0.01952
114.00 0.02203
114.50 0.02453
115.00 0.02704
115.50 0.02954
116.00 0.03205
116.50 0.03615
117.00 0.04098
117.50 0.04580
118.00 0.05061
118.50 0.05542
119.00 0.06023
119.50 0.06849
120.00 0.07719
120.50 0.08590
121.00 0.09495
121.50 0.10422
122.00 0.11348
122.50 0.12645
123.00 0.14213
123.50 0.15780
124.00 0.17504
124.50 0.19254
125.00 0.21004
125.50 0.23201
126.00 0.25524
126.50 0.28088
127.00 0.31150
127.50 0.34205
128.00 0.37045
128.50 0.39793
129.00 0.42531
129.50 0.45761
130.00 0.49199
130.50 0.52576
131.00 0.55782
131.50 0.58974
132.00 0.62406
132.50 0.65683
133.00 0.68903
133.50 0.72313
134.00 0.75540
134.50 0.78816
135.00 0.82098
135.50 0.85101
136.00 0.88226
136.50 0.91481
137.00 0.94433
137.50 0.97346
138.00 1.00294
138.50 1.03085
139.00 1.05913
139.50 1.08727
140.00 1.11354
140.50 1.13900
141.00 1.16643
141.50 1.19377
142.00 1.21473
142.50 1.23539
143.00 1.25597
143.50 1.27948
144.00 1.30462
144.50 1.32555
145.00 1.34481
145.50 1.36403
146.00 1.38357
146.50 1.40339
147.00 1.42279
147.50 1.44179
148.00 1.46077
148.50 1.47604
149.00 1.49157
149.50 1.50768
150.00 1.52377
150.50 1.53985
151.00 1.55592
151.50 1.57198
152.00 1.58535
152.50 1.59584
153.00 1.60592
153.50 1.61585
154.00 1.62775
154.50 1.63978
155.00 1.65186
155.50 1.66397
156.00 1.67611
156.50 1.68793
157.00 1.69757
157.50 1.70727
158.00 1.71481
158.50 1.72123
159.00 1.72777
159.50 1.73477
160.00 1.74182
160.50 1.74893
161.00 1.75609
161.50 1.76330
162.00 1.76795
162.50 1.77251
163.00 1.77424
163.50 1.77622
164.00 1.77985
164.50 1.78357
165.00 1.78738
165.50 1.79128
166.00 1.79527
166.50 1.79893
167.00 1.80124
167.50 1.80355
168.00 1.80440
168.50 1.80535
169.00 1.80673
169.50 1.80832
170.00 1.81001
170.50 1.81181
171.00 1.81371
171.50 1.81440
172.00 1.81447
172.50 1.81409
173.00 1.81351
173.50 1.81304
174.00 1.81363
174.50 1.81437
175.00 1.81524
175.50 1.81515
176.00 1.81498
176.50 1.81493
177.00 1.81501
177.50 1.81528
178.00 1.81538
178.50 1.81562
179.00 1.81598
179.50 1.81646
180.00 1.81708
180.00 1.81708
180.50 1.81646
181.00 1.81598
181.50 1.81562
182.00 1.81538
182.50 1.81528
183.00 1.81501
183.50 1.81493
184.00 1.81498
184.50 1.81515
185.00 1.81524
185.50 1.81437
186.00 1.81363
186.50 1.81304
187.00 1.81351
187.50 1.81409
188.00 1.81447
188.50 1.81440
189.00 1.81371
189.50 1.81181
190.00 1.81001
190.50 1.80832
191.00 1.80673
191.50 1.80535
192.00 1.80440
192.50 1.80355
193.00 1.80124
193.50 1.79893
194.00 1.79527
194.50 1.79128
195.00 1.78738
195.50 1.78357
196.00 1.77985
196.50 1.77622
197.00 1.77424
197.50 1.77251
198.00 1.76795
198.50 1.76330
199.00 1.75609
199.50 1.74893
200.00 1.74182
200.50 1.73477
201.00 1.72777
201.50 1.72123
202.00 1.71481
202.50 1.70727
203.00 1.69757
203.50 1.68793
204.00 1.67611
204.50 1.66397
205.00 1.65186
205.50 1.63978
206.00 1.62775
206.50 1.61585
207.00 1.60592
207.50 1.59584
208.00 1.58535
208.50 1.57198
209.00 1.55592
209.50 1.53985
210.00 1.52377
210.50 1.50768
211.00 1.49157
211.50 1.47604
212.00 1.46077
212.50 1.44179
213.00 1.42279
213.50 1.40339
214.00 1.38357
214.50 1.36403
215.00 1.34481
215.50 1.32555
216.00 1.30462
216.50 1.27948
217.00 1.25597
217.50 1.23539
218.00 1.21473
218.50 1.19377
219.00 1.16643
219.50 1.13900
220.00 1.11354
220.50 1.08727
221.00 1.05913
221.50 1.03085
222.00 1.00294
222.50 0.97346
223.00 0.94433
223.50 0.91481
224.00 0.88226
224.50 0.85101
225.00 0.82098
225.50 0.78816
226.00 0.75540
226.50 0.72313
227.00 0.68903
227.50 0.65683
228.00 0.62406
228.50 0.58974
229.00 0.55782
229.50 0.52576
230.00 0.49199
230.50 0.45761
231.00 0.42531
231.50 0.39793
232.00 0.37045
232.50 0.34205
233.00 0.31150
233.50 0.28088
234.00 0.25524
234.50 0.23201
235.00 0.21004
235.50 0.19254
236.00 0.17504
236.50 0.15780
237.00 0.14213
237.50 0.12645
238.00 0.11348
238.50 0.10422
239.00 0.09495
239.50 0.08590
240.00 0.07719
240.50 0.06849
241.00 0.06023
241.50 0.05542
242.00 0.05061
242.50 0.04580
243.00 0.04098
243.50 0.03615
244.00 0.03205
244.50 0.02954
245.00 0.02704
245.50 0.02453
246.00 0.02203
246.50 0.01952
247.00 0.01730
247.50 0.01588
248.00 0.01446
248.50 0.01302
249.00 0.01154
249.50 0.01022
250.00 0.00944
250.50 0.00866
251.00 0.00787
251.50 0.00709
252.00 0.00630
252.50 0.00550
253.00 0.00507
253.50 0.00468
254.00 0.00428
254.50 0.00389
255.00 0.00350
255.50 0.00311
256.00 0.00272
256.50 0.00241
257.00 0.00223
257.50 0.00205
258.00 0.00187
258.50 0.00168
259.00 0.00150
259.50 0.00132
260.00 0.00119
260.50 0.00110
261.00 0.00101
261.50 0.00092
262.00 0.00083
262.50 0.00075
263.00 0.00068
263.50 0.00063
264.00 0.00058
264.50 0.00052
265.00 0.00047
265.50 0.00043
266.00 0.00040
266.50 0.00037
267.00 0.00034
267.50 0.00032
268.00 0.00030
268.50 0.00029
269.00 0.00028
269.50 0.00027
270.00 0.00025
270.00 0.00025
270.50 0.00027
271.00 0.00028
271.50 0.00029
272.00 0.00030
272.50 0.00032
273.00 0.00034
273.50 0.00037
274.00 0.00040
274.50 0.00043
275.00 0.00047
275.50 0.00052
276.00 0.00058
276.50 0.00063
277.00 0.00068
277.50 0.00075
278.00 0.00083
278.50 0.00092
279.00 0.00101
279.50 0.00110
280.00 0.00119
280.50 0.00132
281.00 0.00150
281.50 0.00168
282.00 0.00187
282.50 0.00205
283.00 0.00223
283.50 0.00241
284.00 0.00272
284.50 0.00311
285.00 0.00350
285.50 0.00389
286.00 0.00428
286.50 0.00468
287.00 0.00507
287.50 0.00550
288.00 0.00630
288.50 0.00709
289.00 0.00787
289.50 0.00866
290.00 0.00944
290.50 0.01022
291.00 0.01154
291.50 0.01302
292.00 0.01446
292.50 0.01588
293.00 0.01730
293.50 0.01952
294.00 0.02203
294.50 0.02453
295.00 0.02704
295.50 0.02954
296.00 0.03205
296.50 0.03615
297.00 0.04098
297.50 0.04580
298.00 0.05061
298.50 0.05542
299.00 0.06023
299.50 0.06849
300.00 0.07719
300.50 0.08590
301.00 0.09495
301.50 0.10422
302.00 0.11348
302.50 0.12645
303.00 0.14213
303.50 0.15780
304.00 0.17504
304.50 0.19254
305.00 0.21004
305.50 0.23201
306.00 0.25524
306.50 0.28088
307.00 0.31150
307.50 0.34205
308.00 0.37045
308.50 0.39793
309.00 0.42531
309.50 0.45761
310.00 0.49199
310.50 0.52576
311.00 0.55782
311.50 0.58974
312.00 0.62406
312.50 0.65683
313.00 0.68903
313.50 0.72313
314.00 0.75540
314.50 0.78816
315.00 0.82098
315.50 0.85101
316.00 0.88226
316.50 0.91481
317.00 0.94433
317.50 0.97346
318.00 1.00294
318.50 1.03085
319.00 1.05913
319.50 1.08727
320.00 1.11354
320.50 1.13900
321.00 1.16643
321.50 1.19377
322.00 1.21473
322.50 1.23539
323.00 1.25597
323.50 1.27948
324.00 1.30462
324.50 1.32555
325.00 1.34481
325.50 1.36403
326.00 1.38357
326.50 1.40339
327.00 1.42279
327.50 1.44179
328.00 1.46077
328.50 1.47604
329.00 1.49157
329.50 1.50768
330.00 1.52377
330.50 1.53985
331.00 1.55592
331.50 1.57198
332.00 1.58535
332.50 1.59584
333.00 1.60592
333.50 1.61585
334.00 1.62775
334.50 1.63978
335.00 1.65186
335.50 1.66397
336.00 1.67611
336.50 1.68793
337.00 1.69757
337.50 1.70727
338.00 1.71481
338.50 1.72123
339.00 1.72777
339.50 1.73477
340.00 1.74182
340.50 1.74893
341.00 1.75609
341.50 1.76330
342.00 1.76795
342.50 1.77251
343.00 1.77424
343.50 1.77622
344.00 1.77985
344.50 1.78357
345.00 1.78738
345.50 1.79128
346.00 1.79527
346.50 1.79893
347.00 1.80124
347.50 1.80355
348.00 1.80440
348.50 1.80535
349.00 1.80673
349.50 1.80832
350.00 1.81001
350.50 1.81181
351.00 1.81371
351.50 1.81440
352.00 1.81447
352.50 1.81409
353.00 1.81351
353.50 1.81304
354.00 1.81363
354.50 1.81437
355.00 1.81524
355.50 1.81515
356.00 1.81498
356.50 1.81493
357.00 1.81501
357.50 1.81528
358.00 1.81538
358.50 1.81562
359.00 1.81598
359.50 1.81646
360.00 1.81708
