phi[deg] B[T]
0.00 1.35848
0.50 1.35781
1.00 1.35727
1.50 1.35624
2.00 1.35407
2.50 1.35212
3.00 1.35051
3.50 1.34707
4.00 1.34336
4.50 1.33962
5.00 1.33606
5.50 1.33254
6.00 1.32540
6.50 1.31821
7.00 1.31188
7.50 1.30667
8.00 1.30038
8.50 1.28793
9.00 1.27542
9.50 1.26347
10.00 1.25521
10.50 1.24203
11.00 1.22699
11.50 1.21183
12.00 1.19761
12.50 1.18403
13.00 1.16425
13.50 1.14208
14.00 1.11975
14.50 1.09860
15.00 1.07607
15.50 1.05141
16.00 1.02653
16.50 1.00149
17.00 0.97631
17.50 0.94516
18.00 0.91244
18.50 0.87951
19.00 0.84635
19.50 0.81269
20.00 0.77959
20.50 0.74624
21.00 0.71264
21.50 0.67880
22.00 0.63851
22.50 0.59717
23.00 0.56059
23.50 0.52382
24.00 0.48687
24.50 0.44811
25.00 0.41295
25.50 0.38396
26.00 0.35487
26.50 0.32571
27.00 0.29645
27.50 0.26407
28.00 0.23774
28.50 0.21734
29.00 0.19973
29.50 0.18212
30.00 0.16451
30.50 0.14690
31.00 0.13057
31.50 0.11524
32.00 0.10501
32.50 0.09639
33.00 0.08820
33.50 0.08045
34.00 0.07271
34.50 0.06498
35.00 0.05725
35.50 0.04985
36.00 0.04554
36.50 0.04123
37.00 0.03691
37.50 0.03360
38.00 0.03046
38.50 0.02733
39.00 0.02421
39.50 0.02168
40.00 0.01950
40.50 0.01763
41.00 0.01609
41.50 0.01456
42.00 0.01303
42.50 0.01149
43.00 0.01045
43.50 0.00954
44.00 0.00863
44.50 0.00772
45.00 0.00681
45.50 0.00626
46.00 0.00571
46.50 0.00516
47.00 0.00461
47.50 0.00406
48.00 0.00374
48.50 0.00342
49.00 0.00311
49.50 0.00280
50.00 0.00249
50.50 0.00224
51.00 0.00202
51.50 0.00184
52.00 0.00170
52.50 0.00156
53.00 0.00142
53.50 0.00128
54.00 0.00115
54.50 0.00102
55.00 0.00096
55.50 0.00090
56.00 0.00084
56.50 0.00079
57.00 0.00073
57.50 0.00067
58.00 0.00061
58.50 0.00056
59.00 0.00054
59.50 0.00051
60.00 0.00049
60.50 0.00046
61.00 0.00044
61.50 0.00041
62.00 0.00039
62.50 0.00037
63.00 0.00035
63.50 0.00034
64.00 0.00033
64.50 0.00032
65.00 0.00031
65.50 0.00030
66.00 0.00029
66.50 0.00028
67.00 0.00027
67.50 0.00027
68.00 0.00026
68.50 0.00025
69.00 0.00024
69.50 0.00024
70.00 0.00023
70.50 0.00023
71.00 0.00022
71.50 0.00021
72.00 0.00021
72.50 0.00020
73.00 0.00020
73.50 0.00019
74.00 0.00018
74.50 0.00018
75.00 0.00017
75.50 0.00017
76.00 0.00016
76.50 0.00016
77.00 0.00015
77.50 0.00014
78.00 0.00014
78.50 0.00013
79.00 0.00013
79.50 0.00012
80.00 0.00012
80.50 0.00011
81.00 0.00010
81.50 0.00010
82.00 0.00009
82.50 0.00009
83.00 0.00008
83.50 0.00008
84.00 0.00007
84.50 0.00007
85.00 0.00006
85.50 0.00006
86.00 0.00005
86.50 0.00004
87.00 0.00004
87.50 0.00003
88.00 0.00003
88.50 0.00002
89.00 0.00002
89.50 0.00002
90.00 0.00002
90.00 0.00002
90.50 0.00002
91.00 0.00002
91.50 0.00002
92.00 0.00003
92.50 0.00003
93.00 0.00004
93.50 0.00004
94.00 0.00005
94.50 0.00006
95.00 0.00006
95.50 0.00007
96.00 0.00007
96.50 0.00008
97.00 0.00008
97.50 0.00009
98.00 0.00009
98.50 0.00010
99.00 0.00010
99.50 0.00011
100.00 0.00012
100.50 0.00012
101.00 0.00013
101.50 0.00013
102.00 0.00014
102.50 0.00014
103.00 0.00015
103.50 0.00016
104.00 0.00016
104.50 0.00017
105.00 0.00017
105.50 0.00018
106.00 0.00018
106.50 0.00019
107.00 0.00020
107.50 0.00020
108.00 0.00021
108.50 0.00021
109.00 0.00022
109.50 0.00023
110.00 0.00023
110.50 0.00024
111.00 0.00024
111.50 0.00025
112.00 0.00026
112.50 0.00027
113.00 0.00027
113.50 0.00028
114.00 0.00029
114.50 0.00030
115.00 0.00031
115.50 0.00032
116.00 0.00033
116.50 0.00034
117.00 0.00035
117.50 0.00037
118.00 0.00039
118.50 0.00041
119.00 0.00044
119.50 0.00046
120.00 0.00049
120.50 0.00051
121.00 0.00054
121.50 0.00056
122.00 0.00061
122.50 0.00067
123.00 0.00073
123.50 0.00079
124.00 0.00084
124.50 0.00090
125.00 0.00096
125.50 0.00102
126.00 0.00115
126.50 0.00128
127.00 0.00142
127.50 0.00156
128.00 0.00170
128.50 0.00184
129.00 0.00202
129.50 0.00224
130.00 0.00249
130.50 0.00280
131.00 0.00311
131.50 0.00342
132.00 0.00374
132.50 0.00406
133.00 0.00461
133.50 0.00516
134.00 0.00571
134.50 0.00626
135.00 0.00681
135.50 0.00772
136.00 0.00863
136.50 0.00954
137.00 0.01045
137.50 0.01149
138.00 0.01303
138.50 0.01456
139.00 0.01609
139.50 0.01763
140.00 0.01950
140.50 0.02168
141.00 0.02421
141.50 0.02733
142.00 0.03046
142.50 0.03360
143.00 0.03691
143.50 0.04123
144.00 0.04554
144.50 0.04985
145.00 0.05725
145.50 0.06498
146.00 0.07271
146.50 0.08045
147.00 0.08820
147.50 0.09639
148.00 0.10501
148.50 0.11524
149.00 0.13057
149.50 0.14690
150.00 0.16451
150.50 0.18212
151.00 0.19973
151.50 0.21734
152.00 0.23774
152.50 0.26407
153.00 0.29645
153.50 0.32571
154.00 0.35487
154.50 0.38396
155.00 0.41295
155.50 0.44811
156.00 0.48687
156.50 0.52382
157.00 0.56059
157.50 0.59717
158.00 0.63851
158.50 0.67880
159.00 0.71264
159.50 0.74624
160.00 0.77959
160.50 0.81269
161.00 0.84635
161.50 0.87951
162.00 0.91244
162.50 0.94516
163.00 0.97631
163.50 1.00149
164.00 1.02653
164.50 1.05141
165.00 1.07607
165.50 1.09860
166.00 1.11975
166.50 1.14208
167.00 1.16425
167.50 1.18403
168.00 1.19761
168.50 1.21183
169.00 1.22699
169.50 1.24203
170.00 1.25521
170.50 1.26347
171.00 1.27542
171.50 1.28793
172.00 1.30038
172.50 1.30667
173.00 1.31188
173.50 1.31821
174.00 1.32540
174.50 1.33254
175.00 1.33606
175.50 1.33962
176.00 1.34336
176.50 1.34707
177.00 1.35051
177.50 1.35212
178.00 1.35407
178.50 1.35624
179.00 1.35727
179.50 1.35781
180.00 1.35848
180.00 1.35848
180.50 1.35781
181.00 1.35727
181.50 1.35624
182.00 1.35407
182.50 1.35212
183.00 1.35051
183.50 1.34707
184.00 1.34336
184.50 1.33962
185.00 1.33606
185.50 1.33254
186.00 1.32540
186.50 1.31821
187.00 1.31188
187.50 1.30667
188.00 1.30038
188.50 1.28793
189.00 1.27542
189.50 1.26347
190.00 1.25521
190.50 1.24203
191.00 1.22699
191.50 1.21183
192.00 1.19761
192.50 1.18403
193.00 1.16425
193.50 1.14208
194.00 1.11975
194.50 1.09860
195.00 1.07607
195.50 1.05141
196.00 1.02653
196.50 1.00149
197.00 0.97631
197.50 0.94516
198.00 0.91244
198.50 0.87951
199.00 0.84635
199.50 0.81269
200.00 0.77959
200.50 0.74624
201.00 0.71264
201.50 0.67880
202.00 0.63851
202.50 0.59717
203.00 0.56059
203.50 0.52382
204.00 0.48687
204.50 0.44811
205.00 0.41295
205.50 0.38396
206.00 0.35487
206.50 0.32571
207.00 0.29645
207.50 0.26407
208.00 0.23774
208.50 0.21734
209.00 0.19973
209.50 0.18212
210.00 0.16451
210.50 0.14690
211.00 0.13057
211.50 0.11524
212.00 0.10501
212.50 0.09639
213.00 0.08820
213.50 0.08045
214.00 0.07271
214.50 0.06498
215.00 0.05725
215.50 0.04985
216.00 0.04554
216.50 0.04123
217.00 0.03691
217.50 0.03360
218.00 0.03046
218.50 0.02733
219.00 0.02421
219.50 0.02168
220.00 0.01950
220.50 0.01763
221.00 0.01609
221.50 0.01456
222.00 0.01303
222.50 0.01149
223.00 0.01045
223.50 0.00954
224.00 0.00863
224.50 0.00772
225.00 0.00681
225.50 0.00626
226.00 0.00571
226.50 0.00516
227.00 0.00461
227.50 0.00406
228.00 0.00374
228.50 0.00342
229.00 0.00311
229.50 0.00280
230.00 0.00249
230.50 0.00224
231.00 0.00202
231.50 0.00184
232.00 0.00170
232.50 0.00156
233.00 0.00142
233.50 0.00128
234.00 0.00115
234.50 0.00102
235.00 0.00096
235.50 0.00090
236.00 0.00084
236.50 0.00079
237.00 0.00073
237.50 0.00067
238.00 0.00061
238.50 0.00056
239.00 0.00054
239.50 0.00051
240.00 0.00049
240.50 0.00046
241.00 0.00044
241.50 0.00041
242.00 0.00039
242.50 0.00037
243.00 0.00035
243.50 0.00034
244.00 0.00033
244.50 0.00032
245.00 0.00031
245.50 0.00030
246.00 0.00029
246.50 0.00028
247.00 0.00027
247.50 0.00027
248.00 0.00026
248.50 0.00025
249.00 0.00024
249.50 0.00024
250.00 0.00023
250.50 0.00023
251.00 0.00022
251.50 0.00021
252.00 0.00021
252.50 0.00020
253.00 0.00020
253.50 0.00019
254.00 0.00018
254.50 0.00018
255.00 0.00017
255.50 0.00017
256.00 0.00016
256.50 0.00016
257.00 0.00015
257.50 0.00014
258.00 0.00014
258.50 0.00013
259.00 0.00013
259.50 0.00012
260.00 0.00012
260.50 0.00011
261.00 0.00010
261.50 0.00010
262.00 0.00009
262.50 0.00009
263.00 0.00008
263.50 0.00008
264.00 0.00007
264.50 0.00007
265.00 0.00006
265.50 0.00006
266.00 0.00005
266.50 0.00004
267.00 0.00004
267.50 0.00003
268.00 0.00003
268.50 0.00002
269.00 0.00002
269.50 0.00002
270.00 0.00002
270.00 0.00002
270.50 0.00002
271.00 0.00002
271.50 0.00002
272.00 0.00003
272.50 0.00003
273.00 0.00004
273.50 0.00004
274.00 0.00005
274.50 0.00006
275.00 0.00006
275.50 0.00007
276.00 0.00007
276.50 0.00008
277.00 0.00008
277.50 0.00009
278.00 0.00009
278.50 0.00010
279.00 0.00010
279.50 0.00011
280.00 0.00012
280.50 0.00012
281.00 0.00013
281.50 0.00013
282.00 0.00014
282.50 0.00014
283.00 0.00015
283.50 0.00016
284.00 0.00016
284.50 0.00017
285.00 0.00017
285.50 0.00018
286.00 0.00018
286.50 0.00019
287.00 0.00020
287.50 0.00020
288.00 0.00021
288.50 0.00021
289.00 0.00022
289.50 0.00023
290.00 0.00023
290.50 0.00024
291.00 0.00024
291.50 0.00025
292.00 0.00026
292.50 0.00027
293.00 0.00027
293.50 0.00028
294.00 0.00029
294.50 0.00030
295.00 0.00031
295.50 0.00032
296.00 0.00033
296.50 0.00034
297.00 0.00035
297.50 0.00037
298.00 0.00039
298.50 0.00041
299.00 0.00044
299.50 0.00046
300.00 0.00049
300.50 0.00051
301.00 0.00054
301.50 0.00056
302.00 0.00061
302.50 0.00067
303.00 0.00073
303.50 0.00079
304.00 0.00084
304.50 0.00090
305.00 0.00096
305.50 0.00102
306.00 0.00115
306.50 0.00128
307.00 0.00142
307.50 0.00156
308.00 0.00170
308.50 0.00184
309.00 0.00202
309.50 0.00224
310.00 0.00249
310.50 0.00280
311.00 0.00311
311.50 0.00342
312.00 0.00374
312.50 0.00406
313.00 0.00461
313.50 0.00516
314.00 0.00571
314.50 0.00626
315.00 0.00681
315.50 0.00772
316.00 0.00863
316.50 0.00954
317.00 0.01045
317.50 0.01149
318.00 0.01303
318.50 0.01456
319.00 0.01609
319.50 0.01763
320.00 0.01950
320.50 0.02168
321.00 0.02421
321.50 0.02733
322.00 0.03046
322.50 0.03360
323.00 0.03691
323.50 0.04123
324.00 0.04554
324.50 0.04985
325.00 0.05725
325.50 0.06498
326.00 0.07271
326.50 0.08045
327.00 0.08820
327.50 0.09639
328.00 0.10501
328.50 0.11524
329.00 0.13057
329.50 0.14690
330.00 0.16451
330.50 0.18212
331.00 0.19973
331.50 0.21734
332.00 0.23774
332.50 0.26407
333.00 0.29645
333.50 0.32571
334.00 0.35487
334.50 0.38396
335.00 0.41295
335.50 0.44811
336.00 0.48687
336.50 0.52382
337.00 0.56059
337.50 0.59717
338.00 0.63851
338.50 0.67880
339.00 0.71264
339.50 0.74624
340.00 0.77959
340.50 0.81269
341.00 0.84635
341.50 0.87951
342.00 0.91244
342.50 0.94516
343.00 0.97631
343.50 1.00149
344.00 1.02653
344.50 1.05141
345.00 1.07607
345.50 1.09860
346.00 1.11975
346.50 1.14208
347.00 1.16425
347.50 1.18403
348.00 1.19761
348.50 1.21183
349.00 1.22699
349.50 1.24203
350.00 1.25521
350.50 1.26347
351.00 1.27542
351.50 1.28793
352.00 1.30038
352.50 1.30667
353.00 1.31188
353.50 1.31821
354.00 1.32540
354.50 1.33254
355.00 1.33606
355.50 1.33962
356.00 1.34336
356.50 1.34707
357.00 1.35051
357.50 1.35212
358.00 1.35407
358.50 1.35624
359.00 1.35727
359.50 1.35781
360.00 1.35848
