phi[deg] B[T]
0.00 1.24965
0.50 1.24882
1.00 1.24808
1.50 1.24743
2.00 1.24644
2.50 1.24545
3.00 1.24455
3.50 1.24397
4.00 1.24359
4.50 1.24309
5.00 1.24261
5.50 1.24239
6.00 1.24275
6.50 1.24321
7.00 1.24437
7.50 1.24585
8.00 1.24720
8.50 1.24822
9.00 1.24933
9.50 1.25054
10.00 1.25338
10.50 1.25511
11.00 1.25594
11.50 1.25667
12.00 1.25748
12.50 1.25650
13.00 1.25508
13.50 1.25384
14.00 1.25266
14.50 1.25087
15.00 1.24923
15.50 1.24765
16.00 1.24575
16.50 1.24394
17.00 1.24230
17.50 1.24074
18.00 1.23952
18.50 1.23844
19.00 1.23824
19.50 1.23648
20.00 1.23448
20.50 1.23264
21.00 1.23279
21.50 1.22998
22.00 1.22482
22.50 1.21970
23.00 1.21462
23.50 1.21005
24.00 1.19939
24.50 1.18744
25.00 1.17548
25.50 1.16351
26.00 1.15154
26.50 1.13956
27.00 1.12757
27.50 1.11197
28.00 1.09718
28.50 1.08244
29.00 1.06777
29.50 1.05314
30.00 1.03851
30.50 1.02394
31.00 1.00934
31.50 0.99479
32.00 0.98068
32.50 0.96698
33.00 0.95333
33.50 0.93922
34.00 0.92518
34.50 0.91170
35.00 0.89911
35.50 0.88639
36.00 0.87310
36.50 0.85987
37.00 0.84669
37.50 0.83470
38.00 0.82356
38.50 0.81124
39.00 0.79793
39.50 0.78465
40.00 0.77138
40.50 0.75858
41.00 0.74514
41.50 0.73062
42.00 0.71608
42.50 0.70104
43.00 0.68593
43.50 0.67028
44.00 0.65444
44.50 0.63783
45.00 0.62132
45.50 0.60398
46.00 0.58720
46.50 0.57023
47.00 0.55329
47.50 0.53773
48.00 0.52233
48.50 0.50806
49.00 0.49568
49.50 0.48305
50.00 0.47065
50.50 0.46072
51.00 0.45156
51.50 0.44074
52.00 0.42947
52.50 0.41999
53.00 0.41267
53.50 0.40491
54.00 0.39341
54.50 0.38052
55.00 0.36753
55.50 0.35485
56.00 0.34246
56.50 0.32962
57.00 0.31180
57.50 0.29384
58.00 0.27363
58.50 0.25228
59.00 0.23081
59.50 0.21106
60.00 0.19151
60.50 0.17009
61.00 0.14806
61.50 0.12594
62.00 0.11038
62.50 0.09582
63.00 0.08365
63.50 0.07145
64.00 0.05922
64.50 0.04867
65.00 0.04293
65.50 0.03703
66.00 0.03109
66.50 0.02515
67.00 0.02178
67.50 0.01869
68.00 0.01569
68.50 0.01302
69.00 0.01115
69.50 0.00934
70.00 0.00807
70.50 0.00680
71.00 0.00579
71.50 0.00489
72.00 0.00404
72.50 0.00355
73.00 0.00306
73.50 0.00259
74.00 0.00216
74.50 0.00184
75.00 0.00162
75.50 0.00143
76.00 0.00124
76.50 0.00104
77.00 0.00093
77.50 0.00082
78.00 0.00072
78.50 0.00065
79.00 0.00059
79.50 0.00054
80.00 0.00049
80.50 0.00045
81.00 0.00042
81.50 0.00039
82.00 0.00036
82.50 0.00033
83.00 0.00030
83.50 0.00028
84.00 0.00026
84.50 0.00024
85.00 0.00022
85.50 0.00019
86.00 0.00017
86.50 0.00015
87.00 0.00013
87.50 0.00011
88.00 0.00009
88.50 0.00007
89.00 0.00006
89.50 0.00005
90.00 0.00004
90.00 0.00004
90.50 0.00005
91.00 0.00006
91.50 0.00007
92.00 0.00009
92.50 0.00011
93.00 0.00013
93.50 0.00015
94.00 0.00017
94.50 0.00019
95.00 0.00022
95.50 0.00024
96.00 0.00026
96.50 0.00028
97.00 0.00030
97.50 0.00033
98.00 0.00036
98.50 0.00039
99.00 0.00042
99.50 0.00045
100.00 0.00049
100.50 0.00054
101.00 0.00059
101.50 0.00065
102.00 0.00072
102.50 0.00082
103.00 0.00093
103.50 0.00104
104.00 0.00124
104.50 0.00143
105.00 0.00162
105.50 0.00184
106.00 0.00216
106.50 0.00259
107.00 0.00306
107.50 0.00355
108.00 0.00404
108.50 0.00489
109.00 0.00579
109.50 0.00680
110.00 0.00807
110.50 0.00934
111.00 0.01115
111.50 0.01302
112.00 0.01569
112.50 0.01869
113.00 0.02178
113.50 0.02515
114.00 0.03109
114.50 0.03703
115.00 0.04293
115.50 0.04867
116.00 0.05922
116.50 0.07145
117.00 0.08365
117.50 0.09582
118.00 0.11038
118.50 0.12594
119.00 0.14806
119.50 0.17009
120.00 0.19151
120.50 0.21106
121.00 0.23081
121.50 0.25228
122.00 0.27363
122.50 0.29384
123.00 0.31180
123.50 0.32962
124.00 0.34246
124.50 0.35485
125.00 0.36753
125.50 0.38052
126.00 0.39341
126.50 0.40491
127.00 0.41267
127.50 0.41999
128.00 0.42947
128.50 0.44074
129.00 0.45156
129.50 0.46072
130.00 0.47065
130.50 0.48305
131.00 0.49568
131.50 0.50806
132.00 0.52233
132.50 0.53773
133.00 0.55329
133.50 0.57023
134.00 0.58720
134.50 0.60398
135.00 0.62132
135.50 0.63783
136.00 0.65444
136.50 0.67028
137.00 0.68593
137.50 0.70104
138.00 0.71608
138.50 0.73062
139.00 0.74514
139.50 0.75858
140.00 0.77138
140.50 0.78465
141.00 0.79793
141.50 0.81124
142.00 0.82356
142.50 0.83470
143.00 0.84669
143.50 0.85987
144.00 0.87310
144.50 0.88639
145.00 0.89911
145.50 0.91170
146.00 0.92518
146.50 0.93922
147.00 0.95333
147.50 0.96698
148.00 0.98068
148.50 0.99479
149.00 1.00934
149.50 1.02394
150.00 1.03851
150.50 1.05314
151.00 1.06777
151.50 1.08244
152.00 1.09718
152.50 1.11197
153.00 1.12757
153.50 1.13956
154.00 1.15154
154.50 1.16351
155.00 1.17548
155.50 1.18744
156.00 1.19939
156.50 1.21005
157.00 1.21462
157.50 1.21970
158.00 1.22482
158.50 1.22998
159.00 1.23279
159.50 1.23264
160.00 1.23448
160.50 1.23648
161.00 1.23824
161.50 1.23844
162.00 1.23952
162.50 1.24074
163.00 1.24230
163.50 1.24394
164.00 1.24575
164.50 1.24765
165.00 1.24923
165.50 1.25087
166.00 1.25266
166.50 1.25384
167.00 1.25508
167.50 1.25650
168.00 1.25748
168.50 1.25667
169.00 1.25594
169.50 1.25511
170.00 1.25338
170.50 1.25054
171.00 1.24933
171.50 1.24822
172.00 1.24720
172.50 1.24585
173.00 1.24437
173.50 1.24321
174.00 1.24275
174.50 1.24239
175.00 1.24261
175.50 1.24309
176.00 1.24359
176.50 1.24397
177.00 1.24455
177.50 1.24545
178.00 1.24644
178.50 1.24743
179.00 1.24808
179.50 1.24882
180.00 1.24965
180.00 1.24965
180.50 1.24882
181.00 1.24808
181.50 1.24743
182.00 1.24644
182.50 1.24545
183.00 1.24455
183.50 1.24397
184.00 1.24359
184.50 1.24309
185.00 1.24261
185.50 1.24239
186.00 1.24275
186.50 1.24321
187.00 1.24437
187.50 1.24585
188.00 1.24720
188.50 1.24822
189.00 1.24933
189.50 1.25054
190.00 1.25338
190.50 1.25511
191.00 1.25594
191.50 1.25667
192.00 1.25748
192.50 1.25650
193.00 1.25508
193.50 1.25384
194.00 1.25266
194.50 1.25087
195.00 1.24923
195.50 1.24765
196.00 1.24575
196.50 1.24394
197.00 1.24230
197.50 1.24074
198.00 1.23952
198.50 1.23844
199.00 1.23824
199.50 1.23648
200.00 1.23448
200.50 1.23264
201.00 1.23279
201.50 1.22998
202.00 1.22482
202.50 1.21970
203.00 1.21462
203.50 1.21005
204.00 1.19939
204.50 1.18744
205.00 1.17548
205.50 1.16351
206.00 1.15154
206.50 1.13956
207.00 1.12757
207.50 1.11197
208.00 1.09718
208.50 1.08244
209.00 1.06777
209.50 1.05314
210.00 1.03851
210.50 1.02394
211.00 1.00934
211.50 0.99479
212.00 0.98068
212.50 0.96698
213.00 0.95333
213.50 0.93922
214.00 0.92518
214.50 0.91170
215.00 0.89911
215.50 0.88639
216.00 0.87310
216.50 0.85987
217.00 0.84669
217.50 0.83470
218.00 0.82356
218.50 0.81124
219.00 0.79793
219.50 0.78465
220.00 0.77138
220.50 0.75858
221.00 0.74514
221.50 0.73062
222.00 0.71608
222.50 0.70104
223.00 0.68593
223.50 0.67028
224.00 0.65444
224.50 0.63783
225.00 0.62132
225.50 0.60398
226.00 0.58720
226.50 0.57023
227.00 0.55329
227.50 0.53773
228.00 0.52233
228.50 0.50806
229.00 0.49568
229.50 0.48305
230.00 0.47065
230.50 0.46072
231.00 0.45156
231.50 0.44074
232.00 0.42947
232.50 0.41999
233.00 0.41267
233.50 0.40491
234.00 0.39341
234.50 0.38052
235.00 0.36753
235.50 0.35485
236.00 0.34246
236.50 0.32962
237.00 0.31180
237.50 0.29384
238.00 0.27363
238.50 0.25228
239.00 0.23081
239.50 0.21106
240.00 0.19151
240.50 0.17009
241.00 0.14806
241.50 0.12594
242.00 0.11038
242.50 0.09582
243.00 0.08365
243.50 0.07145
244.00 0.05922
244.50 0.04867
245.00 0.04293
245.50 0.03703
246.00 0.03109
246.50 0.02515
247.00 0.02178
247.50 0.01869
248.00 0.01569
248.50 0.01302
249.00 0.01115
249.50 0.00934
250.00 0.00807
250.50 0.00680
251.00 0.00579
251.50 0.00489
252.00 0.00404
252.50 0.00355
253.00 0.00306
253.50 0.00259
254.00 0.00216
254.50 0.00184
255.00 0.00162
255.50 0.00143
256.00 0.00124
256.50 0.00104
257.00 0.00093
257.50 0.00082
258.00 0.00072
258.50 0.00065
259.00 0.00059
259.50 0.00054
260.00 0.00049
260.50 0.00045
261.00 0.00042
261.50 0.00039
262.00 0.00036
262.50 0.00033
263.00 0.00030
263.50 0.00028
264.00 0.00026
264.50 0.00024
265.00 0.00022
265.50 0.00019
266.00 0.00017
266.50 0.00015
267.00 0.00013
267.50 0.00011
268.00 0.00009
268.50 0.00007
269.00 0.00006
269.50 0.00005
270.00 0.00004
270.00 0.00004
270.50 0.00005
271.00 0.00006
271.50 0.00007
272.00 0.00009
272.50 0.00011
273.00 0.00013
273.50 0.00015
274.00 0.00017
274.50 0.00019
275.00 0.00022
275.50 0.00024
276.00 0.00026
276.50 0.00028
277.00 0.00030
277.50 0.00033
278.00 0.00036
278.50 0.00039
279.00 0.00042
279.50 0.00045
280.00 0.00049
280.50 0.00054
281.00 0.00059
281.50 0.00065
282.00 0.00072
282.50 0.00082
283.00 0.00093
283.50 0.00104
284.00 0.00124
284.50 0.00143
285.00 0.00162
285.50 0.00184
286.00 0.00216
286.50 0.00259
287.00 0.00306
287.50 0.00355
288.00 0.00404
288.50 0.00489
289.00 0.00579
289.50 0.00680
290.00 0.00807
290.50 0.00934
291.00 0.01115
291.50 0.01302
292.00 0.01569
292.50 0.01869
293.00 0.02178
293.50 0.02515
294.00 0.03109
294.50 0.03703
295.00 0.04293
295.50 0.04867
296.00 0.05922
296.50 0.07145
297.00 0.08365
297.50 0.09582
298.00 0.11038
298.50 0.12594
299.00 0.14806
299.50 0.17009
300.00 0.19151
300.50 0.21106
301.00 0.23081
301.50 0.25228
302.00 0.27363
302.50 0.29384
303.00 0.31180
303.50 0.32962
304.00 0.34246
304.50 0.35485
305.00 0.36753
305.50 0.38052
306.00 0.39341
306.50 0.40491
307.00 0.41267
307.50 0.41999
308.00 0.42947
308.50 0.44074
309.00 0.45156
309.50 0.46072
310.00 0.47065
310.50 0.48305
311.00 0.49568
311.50 0.50806
312.00 0.52233
312.50 0.53773
313.00 0.55329
313.50 0.57023
314.00 0.58720
314.50 0.60398
315.00 0.62132
315.50 0.63783
316.00 0.65444
316.50 0.67028
317.00 0.68593
317.50 0.70104
318.00 0.71608
318.50 0.73062
319.00 0.74514
319.50 0.75858
320.00 0.77138
320.50 0.78465
321.00 0.79793
321.50 0.81124
322.00 0.82356
322.50 0.83470
323.00 0.84669
323.50 0.85987
324.00 0.87310
324.50 0.88639
325.00 0.89911
325.50 0.91170
326.00 0.92518
326.50 0.93922
327.00 0.95333
327.50 0.96698
328.00 0.98068
328.50 0.99479
329.00 1.00934
329.50 1.02394
330.00 1.03851
330.50 1.05314
331.00 1.06777
331.50 1.08244
332.00 1.09718
332.50 1.11197
333.00 1.12757
333.50 1.13956
334.00 1.15154
334.50 1.16351
335.00 1.17548
335.50 1.18744
336.00 1.19939
336.50 1.21005
337.00 1.21462
337.50 1.21970
338.00 1.22482
338.50 1.22998
339.00 1.23279
339.50 1.23264
340.00 1.23448
340.50 1.23648
341.00 1.23824
341.50 1.23844
342.00 1.23952
342.50 1.24074
343.00 1.24230
343.50 1.24394
344.00 1.24575
344.50 1.24765
345.00 1.24923
345.50 1.25087
346.00 1.25266
346.50 1.25384
347.00 1.25508
347.50 1.25650
348.00 1.25748
348.50 1.25667
349.00 1.25594
349.50 1.25511
350.00 1.25338
350.50 1.25054
351.00 1.24933
351.50 1.24822
352.00 1.24720
352.50 1.24585
353.00 1.24437
353.50 1.24321
354.00 1.24275
354.50 1.24239
355.00 1.24261
355.50 1.24309
356.00 1.24359
356.50 1.24397
357.00 1.24455
357.50 1.24545
358.00 1.24644
358.50 1.24743
359.00 1.24808
359.50 1.24882
360.00 1.24965
