phi[deg] B[T]
0.00 1.47298
0.50 1.47240
1.00 1.47192
1.50 1.47157
2.00 1.47130
2.50 1.47096
3.00 1.47074
3.50 1.47064
4.00 1.47073
4.50 1.47116
5.00 1.47170
5.50 1.47267
6.00 1.47387
6.50 1.47519
7.00 1.47640
7.50 1.47772
8.00 1.47915
8.50 1.48071
9.00 1.48350
9.50 1.48658
10.00 1.48911
10.50 1.49026
11.00 1.49115
11.50 1.49212
12.00 1.49318
12.50 1.49258
13.00 1.49141
13.50 1.49029
14.00 1.48882
14.50 1.48745
15.00 1.48617
15.50 1.48436
16.00 1.48252
16.50 1.48068
17.00 1.47813
17.50 1.47566
18.00 1.47329
18.50 1.47141
19.00 1.47078
19.50 1.47011
20.00 1.46918
20.50 1.46491
21.00 1.46067
21.50 1.45646
22.00 1.45212
22.50 1.44664
23.00 1.44119
23.50 1.43329
24.00 1.42272
24.50 1.41216
25.00 1.40157
25.50 1.38636
26.00 1.37119
26.50 1.35606
27.00 1.34098
27.50 1.32595
28.00 1.31096
28.50 1.29554
29.00 1.27971
29.50 1.26533
30.00 1.25044
30.50 1.23479
31.00 1.21920
31.50 1.20365
32.00 1.18853
32.50 1.17496
33.00 1.16143
33.50 1.14446
34.00 1.12680
34.50 1.10917
35.00 1.09156
35.50 1.07533
36.00 1.05906
36.50 1.03835
37.00 1.01770
37.50 0.99816
38.00 0.97849
38.50 0.95823
39.00 0.93801
39.50 0.91779
40.00 0.89761
40.50 0.87772
41.00 0.85852
41.50 0.83939
42.00 0.82079
42.50 0.80224
43.00 0.78417
43.50 0.76655
44.00 0.74934
44.50 0.73264
45.00 0.71602
45.50 0.70073
46.00 0.68544
46.50 0.67133
47.00 0.65784
47.50 0.64458
48.00 0.63243
48.50 0.62308
49.00 0.61273
49.50 0.60098
50.00 0.58926
50.50 0.58024
51.00 0.57345
51.50 0.56410
52.00 0.55117
52.50 0.53817
53.00 0.52510
53.50 0.51429
54.00 0.50565
54.50 0.49150
55.00 0.47344
55.50 0.45521
56.00 0.43680
56.50 0.41822
57.00 0.40103
57.50 0.38389
58.00 0.35504
58.50 0.33080
59.00 0.30809
59.50 0.28524
60.00 0.26189
60.50 0.23624
61.00 0.21047
61.50 0.18457
62.00 0.16118
62.50 0.14187
63.00 0.12771
63.50 0.11345
64.00 0.09906
64.50 0.08464
65.00 0.07021
65.50 0.06218
66.00 0.05502
66.50 0.04787
67.00 0.04089
67.50 0.03395
68.00 0.03004
68.50 0.02653
69.00 0.02312
69.50 0.01971
70.00 0.01630
70.50 0.01457
71.00 0.01290
71.50 0.01123
72.00 0.00956
72.50 0.00799
73.00 0.00699
73.50 0.00622
74.00 0.00548
74.50 0.00474
75.00 0.00399
75.50 0.00341
76.00 0.00302
76.50 0.00263
77.00 0.00226
77.50 0.00193
78.00 0.00167
78.50 0.00150
79.00 0.00133
79.50 0.00117
80.00 0.00101
80.50 0.00085
81.00 0.00076
81.50 0.00067
82.00 0.00059
82.50 0.00053
83.00 0.00047
83.50 0.00041
84.00 0.00037
84.50 0.00032
85.00 0.00029
85.50 0.00026
86.00 0.00022
86.50 0.00019
87.00 0.00017
87.50 0.00014
88.00 0.00012
88.50 0.00010
89.00 0.00009
89.50 0.00008
90.00 0.00007
90.00 0.00007
90.50 0.00008
91.00 0.00009
91.50 0.00010
92.00 0.00012
92.50 0.00014
93.00 0.00017
93.50 0.00019
94.00 0.00022
94.50 0.00026
95.00 0.00029
95.50 0.00032
96.00 0.00037
96.50 0.00041
97.00 0.00047
97.50 0.00053
98.00 0.00059
98.50 0.00067
99.00 0.00076
99.50 0.00085
100.00 0.00101
100.50 0.00117
101.00 0.00133
101.50 0.00150
102.00 0.00167
102.50 0.00193
103.00 0.00226
103.50 0.00263
104.00 0.00302
104.50 0.00341
105.00 0.00399
105.50 0.00474
106.00 0.00548
106.50 0.00622
107.00 0.00699
107.50 0.00799
108.00 0.00956
108.50 0.01123
109.00 0.01290
109.50 0.01457
110.00 0.01630
110.50 0.01971
111.00 0.02312
111.50 0.02653
112.00 0.03004
112.50 0.03395
113.00 0.04089
113.50 0.04787
114.00 0.05502
114.50 0.06218
115.00 0.07021
115.50 0.08464
116.00 0.09906
116.50 0.11345
117.00 0.12771
117.50 0.14187
118.00 0.16118
118.50 0.18457
119.00 0.21047
119.50 0.23624
120.00 0.26189
120.50 0.28524
121.00 0.30809
121.50 0.33080
122.00 0.35504
122.50 0.38389
123.00 0.40103
123.50 0.41822
124.00 0.43680
124.50 0.45521
125.00 0.47344
125.50 0.49150
126.00 0.50565
126.50 0.51429
127.00 0.52510
127.50 0.53817
128.00 0.55117
128.50 0.56410
129.00 0.57345
129.50 0.58024
130.00 0.58926
130.50 0.60098
131.00 0.61273
131.50 0.62308
132.00 0.63243
132.50 0.64458
133.00 0.65784
133.50 0.67133
134.00 0.68544
134.50 0.70073
135.00 0.71602
135.50 0.73264
136.00 0.74934
136.50 0.76655
137.00 0.78417
137.50 0.80224
138.00 0.82079
138.50 0.83939
139.00 0.85852
139.50 0.87772
140.00 0.89761
140.50 0.91779
141.00 0.93801
141.50 0.95823
142.00 0.97849
142.50 0.99816
143.00 1.01770
143.50 1.03835
144.00 1.05906
144.50 1.07533
145.00 1.09156
145.50 1.10917
146.00 1.12680
146.50 1.14446
147.00 1.16143
147.50 1.17496
148.00 1.18853
148.50 1.20365
149.00 1.21920
149.50 1.23479
150.00 1.25044
150.50 1.26533
151.00 1.27971
151.50 1.29554
152.00 1.31096
152.50 1.32595
153.00 1.34098
153.50 1.35606
154.00 1.37119
154.50 1.38636
155.00 1.40157
155.50 1.41216
156.00 1.42272
156.50 1.43329
157.00 1.44119
157.50 1.44664
158.00 1.45212
158.50 1.45646
159.00 1.46067
159.50 1.46491
160.00 1.46918
160.50 1.47011
161.00 1.47078
161.50 1.47141
162.00 1.47329
162.50 1.47566
163.00 1.47813
163.50 1.48068
164.00 1.48252
164.50 1.48436
165.00 1.48617
165.50 1.48745
166.00 1.48882
166.50 1.49029
167.00 1.49141
167.50 1.49258
168.00 1.49318
168.50 1.49212
169.00 1.49115
169.50 1.49026
170.00 1.48911
170.50 1.48658
171.00 1.48350
171.50 1.48071
172.00 1.47915
172.50 1.47772
173.00 1.47640
173.50 1.47519
174.00 1.47387
174.50 1.47267
175.00 1.47170
175.50 1.47116
176.00 1.47073
176.50 1.47064
177.00 1.47074
177.50 1.47096
178.00 1.47130
178.50 1.47157
179.00 1.47192
179.50 1.47240
180.00 1.47298
180.00 1.47298
180.50 1.47240
181.00 1.47192
181.50 1.47157
182.00 1.47130
182.50 1.47096
183.00 1.47074
183.50 1.47064
184.00 1.47073
184.50 1.47116
185.00 1.47170
185.50 1.47267
186.00 1.47387
186.50 1.47519
187.00 1.47640
187.50 1.47772
188.00 1.47915
188.50 1.48071
189.00 1.48350
189.50 1.48658
190.00 1.48911
190.50 1.49026
191.00 1.49115
191.50 1.49212
192.00 1.49318
192.50 1.49258
193.00 1.49141
193.50 1.49029
194.00 1.48882
194.50 1.48745
195.00 1.48617
195.50 1.48436
196.00 1.48252
196.50 1.48068
197.00 1.47813
197.50 1.47566
198.00 1.47329
198.50 1.47141
199.00 1.47078
199.50 1.47011
200.00 1.46918
200.50 1.46491
201.00 1.46067
201.50 1.45646
202.00 1.45212
202.50 1.44664
203.00 1.44119
203.50 1.43329
204.00 1.42272
204.50 1.41216
205.00 1.40157
205.50 1.38636
206.00 1.37119
206.50 1.35606
207.00 1.34098
207.50 1.32595
208.00 1.31096
208.50 1.29554
209.00 1.27971
209.50 1.26533
210.00 1.25044
210.50 1.23479
211.00 1.21920
211.50 1.20365
212.00 1.18853
212.50 1.17496
213.00 1.16143
213.50 1.14446
214.00 1.12680
214.50 1.10917
215.00 1.09156
215.50 1.07533
216.00 1.05906
216.50 1.03835
217.00 1.01770
217.50 0.99816
218.00 0.97849
218.50 0.95823
219.00 0.93801
219.50 0.91779
220.00 0.89761
220.50 0.87772
221.00 0.85852
221.50 0.83939
222.00 0.82079
222.50 0.80224
223.00 0.78417
223.50 0.76655
224.00 0.74934
224.50 0.73264
225.00 0.71602
225.50 0.70073
226.00 0.68544
226.50 0.67133
227.00 0.65784
227.50 0.64458
228.00 0.63243
228.50 0.62308
229.00 0.61273
229.50 0.60098
230.00 0.58926
230.50 0.58024
231.00 0.57345
231.50 0.56410
232.00 0.55117
232.50 0.53817
233.00 0.52510
233.50 0.51429
234.00 0.50565
234.50 0.49150
235.00 0.47344
235.50 0.45521
236.00 0.43680
236.50 0.41822
237.00 0.40103
237.50 0.38389
238.00 0.35504
238.50 0.33080
239.00 0.30809
239.50 0.28524
240.00 0.26189
240.50 0.23624
241.00 0.21047
241.50 0.18457
242.00 0.16118
242.50 0.14187
243.00 0.12771
243.50 0.11345
244.00 0.09906
244.50 0.08464
245.00 0.07021
245.50 0.06218
246.00 0.05502
246.50 0.04787
247.00 0.04089
247.50 0.03395
248.00 0.03004
248.50 0.02653
249.00 0.02312
249.50 0.01971
250.00 0.01630
250.50 0.01457
251.00 0.01290
251.50 0.01123
252.00 0.00956
252.50 0.00799
253.00 0.00699
253.50 0.00622
254.00 0.00548
254.50 0.00474
255.00 0.00399
255.50 0.00341
256.00 0.00302
256.50 0.00263
257.00 0.00226
257.50 0.00193
258.00 0.00167
258.50 0.00150
259.00 0.00133
259.50 0.00117
260.00 0.00101
260.50 0.00085
261.00 0.00076
261.50 0.00067
262.00 0.00059
262.50 0.00053
263.00 0.00047
263.50 0.00041
264.00 0.00037
264.50 0.00032
265.00 0.00029
265.50 0.00026
266.00 0.00022
266.50 0.00019
267.00 0.00017
267.50 0.00014
268.00 0.00012
268.50 0.00010
269.00 0.00009
269.50 0.00008
270.00 0.00007
270.00 0.00007
270.50 0.00008
271.00 0.00009
271.50 0.00010
272.00 0.00012
272.50 0.00014
273.00 0.00017
273.50 0.00019
274.00 0.00022
274.50 0.00026
275.00 0.00029
275.50 0.00032
276.00 0.00037
276.50 0.00041
277.00 0.00047
277.50 0.00053
278.00 0.00059
278.50 0.00067
279.00 0.00076
279.50 0.00085
280.00 0.00101
280.50 0.00117
281.00 0.00133
281.50 0.00150
282.00 0.00167
282.50 0.00193
283.00 0.00226
283.50 0.00263
284.00 0.00302
284.50 0.00341
285.00 0.00399
285.50 0.00474
286.00 0.00548
286.50 0.00622
287.00 0.00699
287.50 0.00799
288.00 0.00956
288.50 0.01123
289.00 0.01290
289.50 0.01457
290.00 0.01630
290.50 0.01971
291.00 0.02312
291.50 0.02653
292.00 0.03004
292.50 0.03395
293.00 0.04089
293.50 0.04787
294.00 0.05502
294.50 0.06218
295.00 0.07021
295.50 0.08464
296.00 0.09906
296.50 0.11345
297.00 0.12771
297.50 0.14187
298.00 0.16118
298.50 0.18457
299.00 0.21047
299.50 0.23624
300.00 0.26189
300.50 0.28524
301.00 0.30809
301.50 0.33080
302.00 0.35504
302.50 0.38389
303.00 0.40103
303.50 0.41822
304.00 0.43680
304.50 0.45521
305.00 0.47344
305.50 0.49150
306.00 0.50565
306.50 0.51429
307.00 0.52510
307.50 0.53817
308.00 0.55117
308.50 0.56410
309.00 0.57345
309.50 0.58024
310.00 0.58926
310.50 0.60098
311.00 0.61273
311.50 0.62308
312.00 0.63243
312.50 0.64458
313.00 0.65784
313.50 0.67133
314.00 0.68544
314.50 0.70073
315.00 0.71602
315.50 0.73264
316.00 0.74934
316.50 0.76655
317.00 0.78417
317.50 0.80224
318.00 0.82079
318.50 0.83939
319.00 0.85852
319.50 0.87772
320.00 0.89761
320.50 0.91779
321.00 0.93801
321.50 0.95823
322.00 0.97849
322.50 0.99816
323.00 1.01770
323.50 1.03835
324.00 1.05906
324.50 1.07533
325.00 1.09156
325.50 1.10917
326.00 1.12680
326.50 1.14446
327.00 1.16143
327.50 1.17496
328.00 1.18853
328.50 1.20365
329.00 1.21920
329.50 1.23479
330.00 1.25044
330.50 1.26533
331.00 1.27971
331.50 1.29554
332.00 1.31096
332.50 1.32595
333.00 1.34098
333.50 1.35606
334.00 1.37119
334.50 1.38636
335.00 1.40157
335.50 1.41216
336.00 1.42272
336.50 1.43329
337.00 1.44119
337.50 1.44664
338.00 1.45212
338.50 1.45646
339.00 1.46067
339.50 1.46491
340.00 1.46918
340.50 1.47011
341.00 1.47078
341.50 1.47141
342.00 1.47329
342.50 1.47566
343.00 1.47813
343.50 1.48068
344.00 1.48252
344.50 1.48436
345.00 1.48617
345.50 1.48745
346.00 1.48882
346.50 1.49029
347.00 1.49141
347.50 1.49258
348.00 1.49318
348.50 1.49212
349.00 1.49115
349.50 1.49026
350.00 1.48911
350.50 1.48658
351.00 1.48350
351.50 1.48071
352.00 1.47915
352.50 1.47772
353.00 1.47640
353.50 1.47519
354.00 1.47387
354.50 1.47267
355.00 1.47170
355.50 1.47116
356.00 1.47073
356.50 1.47064
357.00 1.47074
357.50 1.47096
358.00 1.47130
358.50 1.47157
359.00 1.47192
359.50 1.47240
360.00 1.47298
