phi[deg] B[T]
0.00 1.58592
0.50 1.58557
1.00 1.58535
1.50 1.58526
2.00 1.58529
2.50 1.58545
3.00 1.58576
3.50 1.58620
4.00 1.58675
4.50 1.58744
5.00 1.58847
5.50 1.58975
6.00 1.59116
6.50 1.59196
7.00 1.59289
7.50 1.59393
8.00 1.59562
8.50 1.59744
9.00 1.59938
9.50 1.60022
10.00 1.60007
10.50 1.60015
11.00 1.60181
11.50 1.60357
12.00 1.60418
12.50 1.60363
13.00 1.60217
13.50 1.60019
14.00 1.59829
14.50 1.59646
15.00 1.59472
15.50 1.59305
16.00 1.59143
16.50 1.58978
17.00 1.58849
17.50 1.58472
18.00 1.58072
18.50 1.57678
19.00 1.57289
19.50 1.56905
20.00 1.56527
20.50 1.56229
21.00 1.56099
21.50 1.55543
22.00 1.54742
22.50 1.53941
23.00 1.53114
23.50 1.52289
24.00 1.51466
24.50 1.50452
25.00 1.49224
25.50 1.48000
26.00 1.46725
26.50 1.45310
27.00 1.43898
27.50 1.42527
28.00 1.41158
28.50 1.39774
29.00 1.38344
29.50 1.36911
30.00 1.35298
30.50 1.33687
31.00 1.32079
31.50 1.30474
32.00 1.28907
32.50 1.27484
33.00 1.26063
33.50 1.24298
34.00 1.22434
34.50 1.20570
35.00 1.18706
35.50 1.16792
36.00 1.14867
36.50 1.12934
37.00 1.11001
37.50 1.09051
38.00 1.06952
38.50 1.04856
39.00 1.02764
39.50 1.00733
40.00 0.98727
40.50 0.96732
41.00 0.94765
41.50 0.92801
42.00 0.90893
42.50 0.89044
43.00 0.87183
43.50 0.85322
44.00 0.83502
44.50 0.81700
45.00 0.79892
45.50 0.78124
46.00 0.76367
46.50 0.74609
47.00 0.72873
47.50 0.71136
48.00 0.69314
48.50 0.67579
49.00 0.65842
49.50 0.64188
50.00 0.62547
50.50 0.60718
51.00 0.58773
51.50 0.57077
52.00 0.55471
52.50 0.53857
53.00 0.52197
53.50 0.50436
54.00 0.48668
54.50 0.46894
55.00 0.45093
55.50 0.43085
56.00 0.41069
56.50 0.39128
57.00 0.37180
57.50 0.35223
58.00 0.33258
58.50 0.31285
59.00 0.29388
59.50 0.27484
60.00 0.25489
60.50 0.23477
61.00 0.21459
61.50 0.19435
62.00 0.18001
62.50 0.16677
63.00 0.15349
63.50 0.14019
64.00 0.12651
64.50 0.11195
65.00 0.09737
65.50 0.08606
66.00 0.07862
66.50 0.07117
67.00 0.06465
67.50 0.05836
68.00 0.05208
68.50 0.04579
69.00 0.04023
69.50 0.03656
70.00 0.03288
70.50 0.02919
71.00 0.02613
71.50 0.02365
72.00 0.02118
72.50 0.01871
73.00 0.01677
73.50 0.01514
74.00 0.01350
74.50 0.01185
75.00 0.01080
75.50 0.00984
76.00 0.00888
76.50 0.00792
77.00 0.00698
77.50 0.00619
78.00 0.00541
78.50 0.00494
79.00 0.00452
79.50 0.00413
80.00 0.00373
80.50 0.00334
81.00 0.00295
81.50 0.00256
82.00 0.00232
82.50 0.00212
83.00 0.00192
83.50 0.00172
84.00 0.00156
84.50 0.00140
85.00 0.00124
85.50 0.00116
86.00 0.00109
86.50 0.00101
87.00 0.00093
87.50 0.00086
88.00 0.00082
88.50 0.00079
89.00 0.00076
89.50 0.00073
90.00 0.00070
90.00 0.00070
90.50 0.00073
91.00 0.00076
91.50 0.00079
92.00 0.00082
92.50 0.00086
93.00 0.00093
93.50 0.00101
94.00 0.00109
94.50 0.00116
95.00 0.00124
95.50 0.00140
96.00 0.00156
96.50 0.00172
97.00 0.00192
97.50 0.00212
98.00 0.00232
98.50 0.00256
99.00 0.00295
99.50 0.00334
100.00 0.00373
100.50 0.00413
101.00 0.00452
101.50 0.00494
102.00 0.00541
102.50 0.00619
103.00 0.00698
103.50 0.00792
104.00 0.00888
104.50 0.00984
105.00 0.01080
105.50 0.01185
106.00 0.01350
106.50 0.01514
107.00 0.01677
107.50 0.01871
108.00 0.02118
108.50 0.02365
109.00 0.02613
109.50 0.02919
110.00 0.03288
110.50 0.03656
111.00 0.04023
111.50 0.04579
112.00 0.05208
112.50 0.05836
113.00 0.06465
113.50 0.07117
114.00 0.07862
114.50 0.08606
115.00 0.09737
115.50 0.11195
116.00 0.12651
116.50 0.14019
117.00 0.15349
117.50 0.16677
118.00 0.18001
118.50 0.19435
119.00 0.21459
119.50 0.23477
120.00 0.25489
120.50 0.27484
121.00 0.29388
121.50 0.31285
122.00 0.33258
122.50 0.35223
123.00 0.37180
123.50 0.39128
124.00 0.41069
124.50 0.43085
125.00 0.45093
125.50 0.46894
126.00 0.48668
126.50 0.50436
127.00 0.52197
127.50 0.53857
128.00 0.55471
128.50 0.57077
129.00 0.58773
129.50 0.60718
130.00 0.62547
130.50 0.64188
131.00 0.65842
131.50 0.67579
132.00 0.69314
132.50 0.71136
133.00 0.72873
133.50 0.74609
134.00 0.76367
134.50 0.78124
135.00 0.79892
135.50 0.81700
136.00 0.83502
136.50 0.85322
137.00 0.87183
137.50 0.89044
138.00 0.90893
138.50 0.92801
139.00 0.94765
139.50 0.96732
140.00 0.98727
140.50 1.00733
141.00 1.02764
141.50 1.04856
142.00 1.06952
142.50 1.09051
143.00 1.11001
143.50 1.12934
144.00 1.14867
144.50 1.16792
145.00 1.18706
145.50 1.20570
146.00 1.22434
146.50 1.24298
147.00 1.26063
147.50 1.27484
148.00 1.28907
148.50 1.30474
149.00 1.32079
149.50 1.33687
150.00 1.35298
150.50 1.36911
151.00 1.38344
151.50 1.39774
152.00 1.41158
152.50 1.42527
153.00 1.43898
153.50 1.45310
154.00 1.46725
154.50 1.48000
155.00 1.49224
155.50 1.50452
156.00 1.51466
156.50 1.52289
157.00 1.53114
157.50 1.53941
158.00 1.54742
158.50 1.55543
159.00 1.56099
159.50 1.56229
160.00 1.56527
160.50 1.56905
161.00 1.57289
161.50 1.57678
162.00 1.58072
162.50 1.58472
163.00 1.58849
163.50 1.58978
164.00 1.59143
164.50 1.59305
165.00 1.59472
165.50 1.59646
166.00 1.59829
166.50 1.60019
167.00 1.60217
167.50 1.60363
168.00 1.60418
168.50 1.60357
169.00 1.60181
169.50 1.60015
170.00 1.60007
170.50 1.60022
171.00 1.59938
171.50 1.59744
172.00 1.59562
172.50 1.59393
173.00 1.59289
173.50 1.59196
174.00 1.59116
174.50 1.58975
175.00 1.58847
175.50 1.58744
176.00 1.58675
176.50 1.58620
177.00 1.58576
177.50 1.58545
178.00 1.58529
178.50 1.58526
179.00 1.58535
179.50 1.58557
180.00 1.58592
180.00 1.58592
180.50 1.58557
181.00 1.58535
181.50 1.58526
182.00 1.58529
182.50 1.58545
183.00 1.58576
183.50 1.58620
184.00 1.58675
184.50 1.58744
185.00 1.58847
185.50 1.58975
186.00 1.59116
186.50 1.59196
187.00 1.59289
187.50 1.59393
188.00 1.59562
188.50 1.59744
189.00 1.59938
189.50 1.60022
190.00 1.60007
190.50 1.60015
191.00 1.60181
191.50 1.60357
192.00 1.60418
192.50 1.60363
193.00 1.60217
193.50 1.60019
194.00 1.59829
194.50 1.59646
195.00 1.59472
195.50 1.59305
196.00 1.59143
196.50 1.58978
197.00 1.58849
197.50 1.58472
198.00 1.58072
198.50 1.57678
199.00 1.57289
199.50 1.56905
200.00 1.56527
200.50 1.56229
201.00 1.56099
201.50 1.55543
202.00 1.54742
202.50 1.53941
203.00 1.53114
203.50 1.52289
204.00 1.51466
204.50 1.50452
205.00 1.49224
205.50 1.48000
206.00 1.46725
206.50 1.45310
207.00 1.43898
207.50 1.42527
208.00 1.41158
208.50 1.39774
209.00 1.38344
209.50 1.36911
210.00 1.35298
210.50 1.33687
211.00 1.32079
211.50 1.30474
212.00 1.28907
212.50 1.27484
213.00 1.26063
213.50 1.24298
214.00 1.22434
214.50 1.20570
215.00 1.18706
215.50 1.16792
216.00 1.14867
216.50 1.12934
217.00 1.11001
217.50 1.09051
218.00 1.06952
218.50 1.04856
219.00 1.02764
219.50 1.00733
220.00 0.98727
220.50 0.96732
221.00 0.94765
221.50 0.92801
222.00 0.90893
222.50 0.89044
223.00 0.87183
223.50 0.85322
224.00 0.83502
224.50 0.81700
225.00 0.79892
225.50 0.78124
226.00 0.76367
226.50 0.74609
227.00 0.72873
227.50 0.71136
228.00 0.69314
228.50 0.67579
229.00 0.65842
229.50 0.64188
230.00 0.62547
230.50 0.60718
231.00 0.58773
231.50 0.57077
232.00 0.55471
232.50 0.53857
233.00 0.52197
233.50 0.50436
234.00 0.48668
234.50 0.46894
235.00 0.45093
235.50 0.43085
236.00 0.41069
236.50 0.39128
237.00 0.37180
237.50 0.35223
238.00 0.33258
238.50 0.31285
239.00 0.29388
239.50 0.27484
240.00 0.25489
240.50 0.23477
241.00 0.21459
241.50 0.19435
242.00 0.18001
242.50 0.16677
243.00 0.15349
243.50 0.14019
244.00 0.12651
244.50 0.11195
245.00 0.09737
245.50 0.08606
246.00 0.07862
246.50 0.07117
247.00 0.06465
247.50 0.05836
248.00 0.05208
248.50 0.04579
249.00 0.04023
249.50 0.03656
250.00 0.03288
250.50 0.02919
251.00 0.02613
251.50 0.02365
252.00 0.02118
252.50 0.01871
253.00 0.01677
253.50 0.01514
254.00 0.01350
254.50 0.01185
255.00 0.01080
255.50 0.00984
256.00 0.00888
256.50 0.00792
257.00 0.00698
257.50 0.00619
258.00 0.00541
258.50 0.00494
259.00 0.00452
259.50 0.00413
260.00 0.00373
260.50 0.00334
261.00 0.00295
261.50 0.00256
262.00 0.00232
262.50 0.00212
263.00 0.00192
263.50 0.00172
264.00 0.00156
264.50 0.00140
265.00 0.00124
265.50 0.00116
266.00 0.00109
266.50 0.00101
267.00 0.00093
267.50 0.00086
268.00 0.00082
268.50 0.00079
269.00 0.00076
269.50 0.00073
270.00 0.00070
270.00 0.00070
270.50 0.00073
271.00 0.00076
271.50 0.00079
272.00 0.00082
272.50 0.00086
273.00 0.00093
273.50 0.00101
274.00 0.00109
274.50 0.00116
275.00 0.00124
275.50 0.00140
276.00 0.00156
276.50 0.00172
277.00 0.00192
277.50 0.00212
278.00 0.00232
278.50 0.00256
279.00 0.00295
279.50 0.00334
280.00 0.00373
280.50 0.00413
281.00 0.00452
281.50 0.00494
282.00 0.00541
282.50 0.00619
283.00 0.00698
283.50 0.00792
284.00 0.00888
284.50 0.00984
285.00 0.01080
285.50 0.01185
286.00 0.01350
286.50 0.01514
287.00 0.01677
287.50 0.01871
288.00 0.02118
288.50 0.02365
289.00 0.02613
289.50 0.02919
290.00 0.03288
290.50 0.03656
291.00 0.04023
291.50 0.04579
292.00 0.05208
292.50 0.05836
293.00 0.06465
293.50 0.07117
294.00 0.07862
294.50 0.08606
295.00 0.09737
295.50 0.11195
296.00 0.12651
296.50 0.14019
297.00 0.15349
297.50 0.16677
298.00 0.18001
298.50 0.19435
299.00 0.21459
299.50 0.23477
300.00 0.25489
300.50 0.27484
301.00 0.29388
301.50 0.31285
302.00 0.33258
302.50 0.35223
303.00 0.37180
303.50 0.39128
304.00 0.41069
304.50 0.43085
305.00 0.45093
305.50 0.46894
306.00 0.48668
306.50 0.50436
307.00 0.52197
307.50 0.53857
308.00 0.55471
308.50 0.57077
309.00 0.58773
309.50 0.60718
310.00 0.62547
310.50 0.64188
311.00 0.65842
311.50 0.67579
312.00 0.69314
312.50 0.71136
313.00 0.72873
313.50 0.74609
314.00 0.76367
314.50 0.78124
315.00 0.79892
315.50 0.81700
316.00 0.83502
316.50 0.85322
317.00 0.87183
317.50 0.89044
318.00 0.90893
318.50 0.92801
319.00 0.94765
319.50 0.96732
320.00 0.98727
320.50 1.00733
321.00 1.02764
321.50 1.04856
322.00 1.06952
322.50 1.09051
323.00 1.11001
323.50 1.12934
324.00 1.14867
324.50 1.16792
325.00 1.18706
325.50 1.20570
326.00 1.22434
326.50 1.24298
327.00 1.26063
327.50 1.27484
328.00 1.28907
328.50 1.30474
329.00 1.32079
329.50 1.33687
330.00 1.35298
330.50 1.36911
331.00 1.38344
331.50 1.39774
332.00 1.41158
332.50 1.42527
333.00 1.43898
333.50 1.45310
334.00 1.46725
334.50 1.48000
335.00 1.49224
335.50 1.50452
336.00 1.51466
336.50 1.52289
337.00 1.53114
337.50 1.53941
338.00 1.54742
338.50 1.55543
339.00 1.56099
339.50 1.56229
340.00 1.56527
340.50 1.56905
341.00 1.57289
341.50 1.57678
342.00 1.58072
342.50 1.58472
343.00 1.58849
343.50 1.58978
344.00 1.59143
344.50 1.59305
345.00 1.59472
345.50 1.59646
346.00 1.59829
346.50 1.60019
347.00 1.60217
347.50 1.60363
348.00 1.60418
348.50 1.60357
349.00 1.60181
349.50 1.60015
350.00 1.60007
350.50 1.60022
351.00 1.59938
351.50 1.59744
352.00 1.59562
352.50 1.59393
353.00 1.59289
353.50 1.59196
354.00 1.59116
354.50 1.58975
355.00 1.58847
355.50 1.58744
356.00 1.58675
356.50 1.58620
357.00 1.58576
357.50 1.58545
358.00 1.58529
358.50 1.58526
359.00 1.58535
359.50 1.58557
360.00 1.58592
