phi[deg] B[T]
0.00 1.72614
0.50 1.72547
1.00 1.72494
1.50 1.72453
2.00 1.72421
2.50 1.72382
3.00 1.72356
3.50 1.72345
4.00 1.72348
4.50 1.72375
5.00 1.72416
5.50 1.72499
6.00 1.72615
6.50 1.72744
7.00 1.72845
7.50 1.72946
8.00 1.73061
8.50 1.73189
9.00 1.73458
9.50 1.73754
10.00 1.73952
10.50 1.74060
11.00 1.74102
11.50 1.74154
12.00 1.74216
12.50 1.74106
13.00 1.73931
13.50 1.73757
14.00 1.73534
14.50 1.73320
15.00 1.73117
15.50 1.72855
16.00 1.72592
16.50 1.72320
17.00 1.71952
17.50 1.71594
18.00 1.71246
18.50 1.70956
19.00 1.70809
19.50 1.70634
20.00 1.70435
20.50 1.69870
21.00 1.69310
21.50 1.68755
22.00 1.68191
22.50 1.67490
23.00 1.66795
23.50 1.65817
24.00 1.64585
24.50 1.63354
25.00 1.62126
25.50 1.60422
26.00 1.58713
26.50 1.57000
27.00 1.55268
27.50 1.53541
28.00 1.51820
28.50 1.50060
29.00 1.48256
29.50 1.46575
30.00 1.44861
30.50 1.43066
31.00 1.41276
31.50 1.39492
32.00 1.37740
32.50 1.36175
33.00 1.34616
33.50 1.32753
34.00 1.30769
34.50 1.28789
35.00 1.26813
35.50 1.24922
36.00 1.23183
36.50 1.21131
37.00 1.18932
37.50 1.16774
38.00 1.14618
38.50 1.12465
39.00 1.10293
39.50 1.08119
40.00 1.05930
40.50 1.03744
41.00 1.01547
41.50 0.99400
42.00 0.97274
42.50 0.95147
43.00 0.93025
43.50 0.90959
44.00 0.88897
44.50 0.86838
45.00 0.84786
45.50 0.82819
46.00 0.80854
46.50 0.78967
47.00 0.77131
47.50 0.75303
48.00 0.73603
48.50 0.71898
49.00 0.70307
49.50 0.68696
50.00 0.67085
50.50 0.65901
51.00 0.64791
51.50 0.63154
52.00 0.61317
52.50 0.59474
53.00 0.57646
53.50 0.56500
54.00 0.55344
54.50 0.53816
55.00 0.52112
55.50 0.50366
56.00 0.48120
56.50 0.45859
57.00 0.43581
57.50 0.40988
58.00 0.38372
58.50 0.35741
59.00 0.33175
59.50 0.30667
60.00 0.28065
60.50 0.25425
61.00 0.22773
61.50 0.20110
62.00 0.17843
62.50 0.16074
63.00 0.14263
63.50 0.12450
64.00 0.10635
64.50 0.09296
65.00 0.08276
65.50 0.07255
66.00 0.06247
66.50 0.05275
67.00 0.04708
67.50 0.04167
68.00 0.03625
68.50 0.03082
69.00 0.02645
69.50 0.02345
70.00 0.02044
70.50 0.01765
71.00 0.01498
71.50 0.01310
72.00 0.01169
72.50 0.01030
73.00 0.00893
73.50 0.00757
74.00 0.00646
74.50 0.00576
75.00 0.00506
75.50 0.00437
76.00 0.00383
76.50 0.00329
77.00 0.00286
77.50 0.00255
78.00 0.00225
78.50 0.00194
79.00 0.00169
79.50 0.00145
80.00 0.00130
80.50 0.00117
81.00 0.00104
81.50 0.00091
82.00 0.00078
82.50 0.00070
83.00 0.00064
83.50 0.00057
84.00 0.00050
84.50 0.00044
85.00 0.00039
85.50 0.00036
86.00 0.00032
86.50 0.00028
87.00 0.00026
87.50 0.00024
88.00 0.00022
88.50 0.00020
89.00 0.00019
89.50 0.00018
90.00 0.00018
90.00 0.00018
90.50 0.00018
91.00 0.00019
91.50 0.00020
92.00 0.00022
92.50 0.00024
93.00 0.00026
93.50 0.00028
94.00 0.00032
94.50 0.00036
95.00 0.00039
95.50 0.00044
96.00 0.00050
96.50 0.00057
97.00 0.00064
97.50 0.00070
98.00 0.00078
98.50 0.00091
99.00 0.00104
99.50 0.00117
100.00 0.00130
100.50 0.00145
101.00 0.00169
101.50 0.00194
102.00 0.00225
102.50 0.00255
103.00 0.00286
103.50 0.00329
104.00 0.00383
104.50 0.00437
105.00 0.00506
105.50 0.00576
106.00 0.00646
106.50 0.00757
107.00 0.00893
107.50 0.01030
108.00 0.01169
108.50 0.01310
109.00 0.01498
109.50 0.01765
110.00 0.02044
110.50 0.02345
111.00 0.02645
111.50 0.03082
112.00 0.03625
112.50 0.04167
113.00 0.04708
113.50 0.05275
114.00 0.06247
114.50 0.07255
115.00 0.08276
115.50 0.09296
116.00 0.10635
116.50 0.12450
117.00 0.14263
117.50 0.16074
118.00 0.17843
118.50 0.20110
119.00 0.22773
119.50 0.25425
120.00 0.28065
120.50 0.30667
121.00 0.33175
121.50 0.35741
122.00 0.38372
122.50 0.40988
123.00 0.43581
123.50 0.45859
124.00 0.48120
124.50 0.50366
125.00 0.52112
125.50 0.53816
126.00 0.55344
126.50 0.56500
127.00 0.57646
127.50 0.59474
128.00 0.61317
128.50 0.63154
129.00 0.64791
129.50 0.65901
130.00 0.67085
130.50 0.68696
131.00 0.70307
131.50 0.71898
132.00 0.73603
132.50 0.75303
133.00 0.77131
133.50 0.78967
134.00 0.80854
134.50 0.82819
135.00 0.84786
135.50 0.86838
136.00 0.88897
136.50 0.90959
137.00 0.93025
137.50 0.95147
138.00 0.97274
138.50 0.99400
139.00 1.01547
139.50 1.03744
140.00 1.05930
140.50 1.08119
141.00 1.10293
141.50 1.12465
142.00 1.14618
142.50 1.16774
143.00 1.18932
143.50 1.21131
144.00 1.23183
144.50 1.24922
145.00 1.26813
145.50 1.28789
146.00 1.30769
146.50 1.32753
147.00 1.34616
147.50 1.36175
148.00 1.37740
148.50 1.39492
149.00 1.41276
149.50 1.43066
150.00 1.44861
150.50 1.46575
151.00 1.48256
151.50 1.50060
152.00 1.51820
152.50 1.53541
153.00 1.55268
153.50 1.57000
154.00 1.58713
154.50 1.60422
155.00 1.62126
155.50 1.63354
156.00 1.64585
156.50 1.65817
157.00 1.66795
157.50 1.67490
158.00 1.68191
158.50 1.68755
159.00 1.69310
159.50 1.69870
160.00 1.70435
160.50 1.70634
161.00 1.70809
161.50 1.70956
162.00 1.71246
162.50 1.71594
163.00 1.71952
163.50 1.72320
164.00 1.72592
164.50 1.72855
165.00 1.73117
165.50 1.73320
166.00 1.73534
166.50 1.73757
167.00 1.73931
167.50 1.74106
168.00 1.74216
168.50 1.74154
169.00 1.74102
169.50 1.74060
170.00 1.73952
170.50 1.73754
171.00 1.73458
171.50 1.73189
172.00 1.73061
172.50 1.72946
173.00 1.72845
173.50 1.72744
174.00 1.72615
174.50 1.72499
175.00 1.72416
175.50 1.72375
176.00 1.72348
176.50 1.72345
177.00 1.72356
177.50 1.72382
178.00 1.72421
178.50 1.72453
179.00 1.72494
179.50 1.72547
180.00 1.72614
180.00 1.72614
180.50 1.72547
181.00 1.72494
181.50 1.72453
182.00 1.72421
182.50 1.72382
183.00 1.72356
183.50 1.72345
184.00 1.72348
184.50 1.72375
185.00 1.72416
185.50 1.72499
186.00 1.72615
186.50 1.72744
187.00 1.72845
187.50 1.72946
188.00 1.73061
188.50 1.73189
189.00 1.73458
189.50 1.73754
190.00 1.73952
190.50 1.74060
191.00 1.74102
191.50 1.74154
192.00 1.74216
192.50 1.74106
193.00 1.73931
193.50 1.73757
194.00 1.73534
194.50 1.73320
195.00 1.73117
195.50 1.72855
196.00 1.72592
196.50 1.72320
197.00 1.71952
197.50 1.71594
198.00 1.71246
198.50 1.70956
199.00 1.70809
199.50 1.70634
200.00 1.70435
200.50 1.69870
201.00 1.69310
201.50 1.68755
202.00 1.68191
202.50 1.67490
203.00 1.66795
203.50 1.65817
204.00 1.64585
204.50 1.63354
205.00 1.62126
205.50 1.60422
206.00 1.58713
206.50 1.57000
207.00 1.55268
207.50 1.53541
208.00 1.51820
208.50 1.50060
209.00 1.48256
209.50 1.46575
210.00 1.44861
210.50 1.43066
211.00 1.41276
211.50 1.39492
212.00 1.37740
212.50 1.36175
213.00 1.34616
213.50 1.32753
214.00 1.30769
214.50 1.28789
215.00 1.26813
215.50 1.24922
216.00 1.23183
216.50 1.21131
217.00 1.18932
217.50 1.16774
218.00 1.14618
218.50 1.12465
219.00 1.10293
219.50 1.08119
220.00 1.05930
220.50 1.03744
221.00 1.01547
221.50 0.99400
222.00 0.97274
222.50 0.95147
223.00 0.93025
223.50 0.90959
224.00 0.88897
224.50 0.86838
225.00 0.84786
225.50 0.82819
226.00 0.80854
226.50 0.78967
227.00 0.77131
227.50 0.75303
228.00 0.73603
228.50 0.71898
229.00 0.70307
229.50 0.68696
230.00 0.67085
230.50 0.65901
231.00 0.64791
231.50 0.63154
232.00 0.61317
232.50 0.59474
233.00 0.57646
233.50 0.56500
234.00 0.55344
234.50 0.53816
235.00 0.52112
235.50 0.50366
236.00 0.48120
236.50 0.45859
237.00 0.43581
237.50 0.40988
238.00 0.38372
238.50 0.35741
239.00 0.33175
239.50 0.30667
240.00 0.28065
240.50 0.25425
241.00 0.22773
241.50 0.20110
242.00 0.17843
242.50 0.16074
243.00 0.14263
243.50 0.12450
244.00 0.10635
244.50 0.09296
245.00 0.08276
245.50 0.07255
246.00 0.06247
246.50 0.05275
247.00 0.04708
247.50 0.04167
248.00 0.03625
248.50 0.03082
249.00 0.02645
249.50 0.02345
250.00 0.02044
250.50 0.01765
251.00 0.01498
251.50 0.01310
252.00 0.01169
252.50 0.01030
253.00 0.00893
253.50 0.00757
254.00 0.00646
254.50 0.00576
255.00 0.00506
255.50 0.00437
256.00 0.00383
256.50 0.00329
257.00 0.00286
257.50 0.00255
258.00 0.00225
258.50 0.00194
259.00 0.00169
259.50 0.00145
260.00 0.00130
260.50 0.00117
261.00 0.00104
261.50 0.00091
262.00 0.00078
262.50 0.00070
263.00 0.00064
263.50 0.00057
264.00 0.00050
264.50 0.00044
265.00 0.00039
265.50 0.00036
266.00 0.00032
266.50 0.00028
267.00 0.00026
267.50 0.00024
268.00 0.00022
268.50 0.00020
269.00 0.00019
269.50 0.00018
270.00 0.00018
270.00 0.00018
270.50 0.00018
271.00 0.00019
271.50 0.00020
272.00 0.00022
272.50 0.00024
273.00 0.00026
273.50 0.00028
274.00 0.00032
274.50 0.00036
275.00 0.00039
275.50 0.00044
276.00 0.00050
276.50 0.00057
277.00 0.00064
277.50 0.00070
278.00 0.00078
278.50 0.00091
279.00 0.00104
279.50 0.00117
280.00 0.00130
280.50 0.00145
281.00 0.00169
281.50 0.00194
282.00 0.00225
282.50 0.00255
283.00 0.00286
283.50 0.00329
284.00 0.00383
284.50 0.00437
285.00 0.00506
285.50 0.00576
286.00 0.00646
286.50 0.00757
287.00 0.00893
287.50 0.01030
288.00 0.01169
288.50 0.01310
289.00 0.01498
289.50 0.01765
290.00 0.02044
290.50 0.02345
291.00 0.02645
291.50 0.03082
292.00 0.03625
292.50 0.04167
293.00 0.04708
293.50 0.05275
294.00 0.06247
294.50 0.07255
295.00 0.08276
295.50 0.09296
296.00 0.10635
296.50 0.12450
297.00 0.14263
297.50 0.16074
298.00 0.17843
298.50 0.20110
299.00 0.22773
299.50 0.25425
300.00 0.28065
300.50 0.30667
301.00 0.33175
301.50 0.35741
302.00 0.38372
302.50 0.40988
303.00 0.43581
303.50 0.45859
304.00 0.48120
304.50 0.50366
305.00 0.52112
305.50 0.53816
306.00 0.55344
306.50 0.56500
307.00 0.57646
307.50 0.59474
308.00 0.61317
308.50 0.63154
309.00 0.64791
309.50 0.65901
310.00 0.67085
310.50 0.68696
311.00 0.70307
311.50 0.71898
312.00 0.73603
312.50 0.75303
313.00 0.77131
313.50 0.78967
314.00 0.80854
314.50 0.82819
315.00 0.84786
315.50 0.86838
316.00 0.88897
316.50 0.90959
317.00 0.93025
317.50 0.95147
318.00 0.97274
318.50 0.99400
319.00 1.01547
319.50 1.03744
320.00 1.05930
320.50 1.08119
321.00 1.10293
321.50 1.12465
322.00 1.14618
322.50 1.16774
323.00 1.18932
323.50 1.21131
324.00 1.23183
324.50 1.24922
325.00 1.26813
325.50 1.28789
326.00 1.30769
326.50 1.32753
327.00 1.34616
327.50 1.36175
328.00 1.37740
328.50 1.39492
329.00 1.41276
329.50 1.43066
330.00 1.44861
330.50 1.46575
331.00 1.48256
331.50 1.50060
332.00 1.51820
332.50 1.53541
333.00 1.55268
333.50 1.57000
334.00 1.58713
334.50 1.60422
335.00 1.62126
335.50 1.63354
336.00 1.64585
336.50 1.65817
337.00 1.66795
337.50 1.67490
338.00 1.68191
338.50 1.68755
339.00 1.69310
339.50 1.69870
340.00 1.70435
340.50 1.70634
341.00 1.70809
341.50 1.70956
342.00 1.71246
342.50 1.71594
343.00 1.71952
343.50 1.72320
344.00 1.72592
344.50 1.72855
345.00 1.73117
345.50 1.73320
346.00 1.73534
346.50 1.73757
347.00 1.73931
347.50 1.74106
348.00 1.74216
348.50 1.74154
349.00 1.74102
349.50 1.74060
350.00 1.73952
350.50 1.73754
351.00 1.73458
351.50 1.73189
352.00 1.73061
352.50 1.72946
353.00 1.72845
353.50 1.72744
354.00 1.72615
354.50 1.72499
355.00 1.72416
355.50 1.72375
356.00 1.72348
356.50 1.72345
357.00 1.72356
357.50 1.72382
358.00 1.72421
358.50 1.72453
359.00 1.72494
359.50 1.72547
360.00 1.72614
