phi[deg] B[T]
0.00 1.75459
0.50 1.75450
1.00 1.75456
1.50 1.75475
2.00 1.75507
2.50 1.75553
3.00 1.75622
3.50 1.75712
4.00 1.75814
4.50 1.75929
5.00 1.76057
5.50 1.76201
6.00 1.76364
6.50 1.76540
7.00 1.76728
7.50 1.76816
8.00 1.76871
8.50 1.76964
9.00 1.77084
9.50 1.77215
10.00 1.77357
10.50 1.77471
11.00 1.77296
11.50 1.77130
12.00 1.77107
12.50 1.77102
13.00 1.77105
13.50 1.77087
14.00 1.76824
14.50 1.76569
15.00 1.76323
15.50 1.76014
16.00 1.75607
16.50 1.75207
17.00 1.74808
17.50 1.74317
18.00 1.73834
18.50 1.73358
19.00 1.72890
19.50 1.72430
20.00 1.71873
20.50 1.71042
21.00 1.70249
21.50 1.69463
22.00 1.68682
22.50 1.67907
23.00 1.67138
23.50 1.66373
24.00 1.65100
24.50 1.63788
25.00 1.62464
25.50 1.61110
26.00 1.59760
26.50 1.58414
27.00 1.57072
27.50 1.55734
28.00 1.54039
28.50 1.52294
29.00 1.50552
29.50 1.48902
30.00 1.47377
30.50 1.45854
31.00 1.44333
31.50 1.42738
32.00 1.40996
32.50 1.39256
33.00 1.37518
33.50 1.35597
34.00 1.33582
34.50 1.31567
35.00 1.29553
35.50 1.27648
36.00 1.25754
36.50 1.23860
37.00 1.21779
37.50 1.19647
38.00 1.17515
38.50 1.15384
39.00 1.13177
39.50 1.11062
40.00 1.08973
40.50 1.06883
41.00 1.04793
41.50 1.02536
42.00 1.00381
42.50 0.98352
43.00 0.96321
43.50 0.94219
44.00 0.92102
44.50 0.89983
45.00 0.87820
45.50 0.85617
46.00 0.83554
46.50 0.81486
47.00 0.79409
47.50 0.77304
48.00 0.75194
48.50 0.73048
49.00 0.70869
49.50 0.68792
50.00 0.66710
50.50 0.64622
51.00 0.62531
51.50 0.60339
52.00 0.58325
52.50 0.56332
53.00 0.54333
53.50 0.52327
54.00 0.50406
54.50 0.48535
55.00 0.46657
55.50 0.44740
56.00 0.42705
56.50 0.40664
57.00 0.38687
57.50 0.36732
58.00 0.34769
58.50 0.32800
59.00 0.30825
59.50 0.29117
60.00 0.27471
60.50 0.25821
61.00 0.24119
61.50 0.22377
62.00 0.20632
62.50 0.18883
63.00 0.17366
63.50 0.16069
64.00 0.14770
64.50 0.13467
65.00 0.12273
65.50 0.11247
66.00 0.10330
66.50 0.09537
67.00 0.08742
67.50 0.07947
68.00 0.07151
68.50 0.06575
69.00 0.06106
69.50 0.05636
70.00 0.05167
70.50 0.04701
71.00 0.04276
71.50 0.03852
72.00 0.03427
72.50 0.03112
73.00 0.02902
73.50 0.02691
74.00 0.02482
74.50 0.02274
75.00 0.02066
75.50 0.01859
76.00 0.01652
76.50 0.01506
77.00 0.01394
77.50 0.01282
78.00 0.01169
78.50 0.01064
79.00 0.00977
79.50 0.00889
80.00 0.00801
80.50 0.00739
81.00 0.00682
81.50 0.00624
82.00 0.00572
82.50 0.00530
83.00 0.00489
83.50 0.00447
84.00 0.00411
84.50 0.00382
85.00 0.00353
85.50 0.00336
86.00 0.00319
86.50 0.00303
87.00 0.00286
87.50 0.00270
88.00 0.00260
88.50 0.00253
89.00 0.00246
89.50 0.00238
90.00 0.00231
90.00 0.00231
90.50 0.00238
91.00 0.00246
91.50 0.00253
92.00 0.00260
92.50 0.00270
93.00 0.00286
93.50 0.00303
94.00 0.00319
94.50 0.00336
95.00 0.00353
95.50 0.00382
96.00 0.00411
96.50 0.00447
97.00 0.00489
97.50 0.00530
98.00 0.00572
98.50 0.00624
99.00 0.00682
99.50 0.00739
100.00 0.00801
100.50 0.00889
101.00 0.00977
101.50 0.01064
102.00 0.01169
102.50 0.01282
103.00 0.01394
103.50 0.01506
104.00 0.01652
104.50 0.01859
105.00 0.02066
105.50 0.02274
106.00 0.02482
106.50 0.02691
107.00 0.02902
107.50 0.03112
108.00 0.03427
108.50 0.03852
109.00 0.04276
109.50 0.04701
110.00 0.05167
110.50 0.05636
111.00 0.06106
111.50 0.06575
112.00 0.07151
112.50 0.07947
113.00 0.08742
113.50 0.09537
114.00 0.10330
114.50 0.11247
115.00 0.12273
115.50 0.13467
116.00 0.14770
116.50 0.16069
117.00 0.17366
117.50 0.18883
118.00 0.20632
118.50 0.22377
119.00 0.24119
119.50 0.25821
120.00 0.27471
120.50 0.29117
121.00 0.30825
121.50 0.32800
122.00 0.34769
122.50 0.36732
123.00 0.38687
123.50 0.40664
124.00 0.42705
124.50 0.44740
125.00 0.46657
125.50 0.48535
126.00 0.50406
126.50 0.52327
127.00 0.54333
127.50 0.56332
128.00 0.58325
128.50 0.60339
129.00 0.62531
129.50 0.64622
130.00 0.66710
130.50 0.68792
131.00 0.70869
131.50 0.73048
132.00 0.75194
132.50 0.77304
133.00 0.79409
133.50 0.81486
134.00 0.83554
134.50 0.85617
135.00 0.87820
135.50 0.89983
136.00 0.92102
136.50 0.94219
137.00 0.96321
137.50 0.98352
138.00 1.00381
138.50 1.02536
139.00 1.04793
139.50 1.06883
140.00 1.08973
140.50 1.11062
141.00 1.13177
141.50 1.15384
142.00 1.17515
142.50 1.19647
143.00 1.21779
143.50 1.23860
144.00 1.25754
144.50 1.27648
145.00 1.29553
145.50 1.31567
146.00 1.33582
146.50 1.35597
147.00 1.37518
147.50 1.39256
148.00 1.40996
148.50 1.42738
149.00 1.44333
149.50 1.45854
150.00 1.47377
150.50 1.48902
151.00 1.50552
151.50 1.52294
152.00 1.54039
152.50 1.55734
153.00 1.57072
153.50 1.58414
154.00 1.59760
154.50 1.61110
155.00 1.62464
155.50 1.63788
156.00 1.65100
156.50 1.66373
157.00 1.67138
157.50 1.67907
158.00 1.68682
158.50 1.69463
159.00 1.70249
159.50 1.71042
160.00 1.71873
160.50 1.72430
161.00 1.72890
161.50 1.73358
162.00 1.73834
162.50 1.74317
163.00 1.74808
163.50 1.75207
164.00 1.75607
164.50 1.76014
165.00 1.76323
165.50 1.76569
166.00 1.76824
166.50 1.77087
167.00 1.77105
167.50 1.77102
168.00 1.77107
168.50 1.77130
169.00 1.77296
169.50 1.77471
170.00 1.77357
170.50 1.77215
171.00 1.77084
171.50 1.76964
172.00 1.76871
172.50 1.76816
173.00 1.76728
173.50 1.76540
174.00 1.76364
174.50 1.76201
175.00 1.76057
175.50 1.75929
176.00 1.75814
176.50 1.75712
177.00 1.75622
177.50 1.75553
178.00 1.75507
178.50 1.75475
179.00 1.75456
179.50 1.75450
180.00 1.75459
180.00 1.75459
180.50 1.75450
181.00 1.75456
181.50 1.75475
182.00 1.75507
182.50 1.75553
183.00 1.75622
183.50 1.75712
184.00 1.75814
184.50 1.75929
185.00 1.76057
185.50 1.76201
186.00 1.76364
186.50 1.76540
187.00 1.76728
187.50 1.76816
188.00 1.76871
188.50 1.76964
189.00 1.77084
189.50 1.77215
190.00 1.77357
190.50 1.77471
191.00 1.77296
191.50 1.77130
192.00 1.77107
192.50 1.77102
193.00 1.77105
193.50 1.77087
194.00 1.76824
194.50 1.76569
195.00 1.76323
195.50 1.76014
196.00 1.75607
196.50 1.75207
197.00 1.74808
197.50 1.74317
198.00 1.73834
198.50 1.73358
199.00 1.72890
199.50 1.72430
200.00 1.71873
200.50 1.71042
201.00 1.70249
201.50 1.69463
202.00 1.68682
202.50 1.67907
203.00 1.67138
203.50 1.66373
204.00 1.65100
204.50 1.63788
205.00 1.62464
205.50 1.61110
206.00 1.59760
206.50 1.58414
207.00 1.57072
207.50 1.55734
208.00 1.54039
208.50 1.52294
209.00 1.50552
209.50 1.48902
210.00 1.47377
210.50 1.45854
211.00 1.44333
211.50 1.42738
212.00 1.40996
212.50 1.39256
213.00 1.37518
213.50 1.35597
214.00 1.33582
214.50 1.31567
215.00 1.29553
215.50 1.27648
216.00 1.25754
216.50 1.23860
217.00 1.21779
217.50 1.19647
218.00 1.17515
218.50 1.15384
219.00 1.13177
219.50 1.11062
220.00 1.08973
220.50 1.06883
221.00 1.04793
221.50 1.02536
222.00 1.00381
222.50 0.98352
223.00 0.96321
223.50 0.94219
224.00 0.92102
224.50 0.89983
225.00 0.87820
225.50 0.85617
226.00 0.83554
226.50 0.81486
227.00 0.79409
227.50 0.77304
228.00 0.75194
228.50 0.73048
229.00 0.70869
229.50 0.68792
230.00 0.66710
230.50 0.64622
231.00 0.62531
231.50 0.60339
232.00 0.58325
232.50 0.56332
233.00 0.54333
233.50 0.52327
234.00 0.50406
234.50 0.48535
235.00 0.46657
235.50 0.44740
236.00 0.42705
236.50 0.40664
237.00 0.38687
237.50 0.36732
238.00 0.34769
238.50 0.32800
239.00 0.30825
239.50 0.29117
240.00 0.27471
240.50 0.25821
241.00 0.24119
241.50 0.22377
242.00 0.20632
242.50 0.18883
243.00 0.17366
243.50 0.16069
244.00 0.14770
244.50 0.13467
245.00 0.12273
245.50 0.11247
246.00 0.10330
246.50 0.09537
247.00 0.08742
247.50 0.07947
248.00 0.07151
248.50 0.06575
249.00 0.06106
249.50 0.05636
250.00 0.05167
250.50 0.04701
251.00 0.04276
251.50 0.03852
252.00 0.03427
252.50 0.03112
253.00 0.02902
253.50 0.02691
254.00 0.02482
254.50 0.02274
255.00 0.02066
255.50 0.01859
256.00 0.01652
256.50 0.01506
257.00 0.01394
257.50 0.01282
258.00 0.01169
258.50 0.01064
259.00 0.00977
259.50 0.00889
260.00 0.00801
260.50 0.00739
261.00 0.00682
261.50 0.00624
262.00 0.00572
262.50 0.00530
263.00 0.00489
263.50 0.00447
264.00 0.00411
264.50 0.00382
265.00 0.00353
265.50 0.00336
266.00 0.00319
266.50 0.00303
267.00 0.00286
267.50 0.00270
268.00 0.00260
268.50 0.00253
269.00 0.00246
269.50 0.00238
270.00 0.00231
270.00 0.00231
270.50 0.00238
271.00 0.00246
271.50 0.00253
272.00 0.00260
272.50 0.00270
273.00 0.00286
273.50 0.00303
274.00 0.00319
274.50 0.00336
275.00 0.00353
275.50 0.00382
276.00 0.00411
276.50 0.00447
277.00 0.00489
277.50 0.00530
278.00 0.00572
278.50 0.00624
279.00 0.00682
279.50 0.00739
280.00 0.00801
280.50 0.00889
281.00 0.00977
281.50 0.01064
282.00 0.01169
282.50 0.01282
283.00 0.01394
283.50 0.01506
284.00 0.01652
284.50 0.01859
285.00 0.02066
285.50 0.02274
286.00 0.02482
286.50 0.02691
287.00 0.02902
287.50 0.03112
288.00 0.03427
288.50 0.03852
289.00 0.04276
289.50 0.04701
290.00 0.05167
290.50 0.05636
291.00 0.06106
291.50 0.06575
292.00 0.07151
292.50 0.07947
293.00 0.08742
293.50 0.09537
294.00 0.10330
294.50 0.11247
295.00 0.12273
295.50 0.13467
296.00 0.14770
296.50 0.16069
297.00 0.17366
297.50 0.18883
298.00 0.20632
298.50 0.22377
299.00 0.24119
299.50 0.25821
300.00 0.27471
300.50 0.29117
301.00 0.30825
301.50 0.32800
302.00 0.34769
302.50 0.36732
303.00 0.38687
303.50 0.40664
304.00 0.42705
304.50 0.44740
305.00 0.46657
305.50 0.48535
306.00 0.50406
306.50 0.52327
307.00 0.54333
307.50 0.56332
308.00 0.58325
308.50 0.60339
309.00 0.62531
309.50 0.64622
310.00 0.66710
310.50 0.68792
311.00 0.70869
311.50 0.73048
312.00 0.75194
312.50 0.77304
313.00 0.79409
313.50 0.81486
314.00 0.83554
314.50 0.85617
315.00 0.87820
315.50 0.89983
316.00 0.92102
316.50 0.94219
317.00 0.96321
317.50 0.98352
318.00 1.00381
318.50 1.02536
319.00 1.04793
319.50 1.06883
320.00 1.08973
320.50 1.11062
321.00 1.13177
321.50 1.15384
322.00 1.17515
322.50 1.19647
323.00 1.21779
323.50 1.23860
324.00 1.25754
324.50 1.27648
325.00 1.29553
325.50 1.31567
326.00 1.33582
326.50 1.35597
327.00 1.37518
327.50 1.39256
328.00 1.40996
328.50 1.42738
329.00 1.44333
329.50 1.45854
330.00 1.47377
330.50 1.48902
331.00 1.50552
331.50 1.52294
332.00 1.54039
332.50 1.55734
333.00 1.57072
333.50 1.58414
334.00 1.59760
334.50 1.61110
335.00 1.62464
335.50 1.63788
336.00 1.65100
336.50 1.66373
337.00 1.67138
337.50 1.67907
338.00 1.68682
338.50 1.69463
339.00 1.70249
339.50 1.71042
340.00 1.71873
340.50 1.72430
341.00 1.72890
341.50 1.73358
342.00 1.73834
342.50 1.74317
343.00 1.74808
343.50 1.75207
344.00 1.75607
344.50 1.76014
345.00 1.76323
345.50 1.76569
346.00 1.76824
346.50 1.77087
347.00 1.77105
347.50 1.77102
348.00 1.77107
348.50 1.77130
349.00 1.77296
349.50 1.77471
350.00 1.77357
350.50 1.77215
351.00 1.77084
351.50 1.76964
352.00 1.76871
352.50 1.76816
353.00 1.76728
353.50 1.76540
354.00 1.76364
354.50 1.76201
355.00 1.76057
355.50 1.75929
356.00 1.75814
356.50 1.75712
357.00 1.75622
357.50 1.75553
358.00 1.75507
358.50 1.75475
359.00 1.75456
359.50 1.75450
360.00 1.75459
