phi[deg] B[T]
0.00 1.56595
0.50 1.56485
1.00 1.56386
1.50 1.56297
2.00 1.56162
2.50 1.56047
3.00 1.55943
3.50 1.55792
4.00 1.55608
4.50 1.55532
5.00 1.55478
5.50 1.55447
6.00 1.55443
6.50 1.55452
7.00 1.55473
7.50 1.55508
8.00 1.55606
8.50 1.55781
9.00 1.55969
9.50 1.56088
10.00 1.56134
10.50 1.56190
11.00 1.56316
11.50 1.56453
12.00 1.56573
12.50 1.56474
13.00 1.56384
13.50 1.56299
14.00 1.56181
14.50 1.56063
15.00 1.55919
15.50 1.55780
16.00 1.55634
16.50 1.55497
17.00 1.55384
17.50 1.55301
18.00 1.55228
18.50 1.55165
19.00 1.55051
19.50 1.54747
20.00 1.54325
20.50 1.54184
21.00 1.54049
21.50 1.53917
22.00 1.53425
22.50 1.52506
23.00 1.51590
23.50 1.50782
24.00 1.50132
24.50 1.48554
25.00 1.46812
25.50 1.45319
26.00 1.43830
26.50 1.42345
27.00 1.40617
27.50 1.38764
28.00 1.36927
28.50 1.35222
29.00 1.33525
29.50 1.31881
30.00 1.30262
30.50 1.28649
31.00 1.27026
31.50 1.25353
32.00 1.23553
32.50 1.21971
33.00 1.20429
33.50 1.18891
34.00 1.17163
34.50 1.15286
35.00 1.13439
35.50 1.11636
36.00 1.09718
36.50 1.07646
37.00 1.05578
37.50 1.03444
38.00 1.01423
38.50 0.99413
39.00 0.97409
39.50 0.95380
40.00 0.93519
40.50 0.91655
41.00 0.89790
41.50 0.87955
42.00 0.86275
42.50 0.84569
43.00 0.82916
43.50 0.81341
44.00 0.79737
44.50 0.78158
45.00 0.76644
45.50 0.75156
46.00 0.73624
46.50 0.72101
47.00 0.70615
47.50 0.69120
48.00 0.67580
48.50 0.66134
49.00 0.64624
49.50 0.62995
50.00 0.61410
50.50 0.60020
51.00 0.58627
51.50 0.56953
52.00 0.55199
52.50 0.53439
53.00 0.51889
53.50 0.50485
54.00 0.49016
54.50 0.47082
55.00 0.45118
55.50 0.43140
56.00 0.41170
56.50 0.39296
57.00 0.37409
57.50 0.35205
58.00 0.32910
58.50 0.30601
59.00 0.28017
59.50 0.25270
60.00 0.22525
60.50 0.20576
61.00 0.18619
61.50 0.16654
62.00 0.14336
62.50 0.12013
63.00 0.10519
63.50 0.09035
64.00 0.07891
64.50 0.06753
65.00 0.05788
65.50 0.05076
66.00 0.04363
66.50 0.03648
67.00 0.03066
67.50 0.02721
68.00 0.02374
68.50 0.02023
69.00 0.01672
69.50 0.01472
70.00 0.01291
70.50 0.01104
71.00 0.00917
71.50 0.00790
72.00 0.00692
72.50 0.00594
73.00 0.00496
73.50 0.00428
74.00 0.00375
74.50 0.00326
75.00 0.00276
75.50 0.00234
76.00 0.00207
76.50 0.00179
77.00 0.00156
77.50 0.00136
78.00 0.00117
78.50 0.00105
79.00 0.00093
79.50 0.00080
80.00 0.00072
80.50 0.00064
81.00 0.00058
81.50 0.00053
82.00 0.00047
82.50 0.00042
83.00 0.00039
83.50 0.00036
84.00 0.00032
84.50 0.00029
85.00 0.00026
85.50 0.00023
86.00 0.00020
86.50 0.00018
87.00 0.00015
87.50 0.00012
88.00 0.00010
88.50 0.00007
89.00 0.00007
89.50 0.00006
90.00 0.00005
90.00 0.00005
90.50 0.00006
91.00 0.00007
91.50 0.00007
92.00 0.00010
92.50 0.00012
93.00 0.00015
93.50 0.00018
94.00 0.00020
94.50 0.00023
95.00 0.00026
95.50 0.00029
96.00 0.00032
96.50 0.00036
97.00 0.00039
97.50 0.00042
98.00 0.00047
98.50 0.00053
99.00 0.00058
99.50 0.00064
100.00 0.00072
100.50 0.00080
101.00 0.00093
101.50 0.00105
102.00 0.00117
102.50 0.00136
103.00 0.00156
103.50 0.00179
104.00 0.00207
104.50 0.00234
105.00 0.00276
105.50 0.00326
106.00 0.00375
106.50 0.00428
107.00 0.00496
107.50 0.00594
108.00 0.00692
108.50 0.00790
109.00 0.00917
109.50 0.01104
110.00 0.01291
110.50 0.01472
111.00 0.01672
111.50 0.02023
112.00 0.02374
112.50 0.02721
113.00 0.03066
113.50 0.03648
114.00 0.04363
114.50 0.05076
115.00 0.05788
115.50 0.06753
116.00 0.07891
116.50 0.09035
117.00 0.10519
117.50 0.12013
118.00 0.14336
118.50 0.16654
119.00 0.18619
119.50 0.20576
120.00 0.22525
120.50 0.25270
121.00 0.28017
121.50 0.30601
122.00 0.32910
122.50 0.35205
123.00 0.37409
123.50 0.39296
124.00 0.41170
124.50 0.43140
125.00 0.45118
125.50 0.47082
126.00 0.49016
126.50 0.50485
127.00 0.51889
127.50 0.53439
128.00 0.55199
128.50 0.56953
129.00 0.58627
129.50 0.60020
130.00 0.61410
130.50 0.62995
131.00 0.64624
131.50 0.66134
132.00 0.67580
132.50 0.69120
133.00 0.70615
133.50 0.72101
134.00 0.73624
134.50 0.75156
135.00 0.76644
135.50 0.78158
136.00 0.79737
136.50 0.81341
137.00 0.82916
137.50 0.84569
138.00 0.86275
138.50 0.87955
139.00 0.89790
139.50 0.91655
140.00 0.93519
140.50 0.95380
141.00 0.97409
141.50 0.99413
142.00 1.01423
142.50 1.03444
143.00 1.05578
143.50 1.07646
144.00 1.09718
144.50 1.11636
145.00 1.13439
145.50 1.15286
146.00 1.17163
146.50 1.18891
147.00 1.20429
147.50 1.21971
148.00 1.23553
148.50 1.25353
149.00 1.27026
149.50 1.28649
150.00 1.30262
150.50 1.31881
151.00 1.33525
151.50 1.35222
152.00 1.36927
152.50 1.38764
153.00 1.40617
153.50 1.42345
154.00 1.43830
154.50 1.45319
155.00 1.46812
155.50 1.48554
156.00 1.50132
156.50 1.50782
157.00 1.51590
157.50 1.52506
158.00 1.53425
158.50 1.53917
159.00 1.54049
159.50 1.54184
160.00 1.54325
160.50 1.54747
161.00 1.55051
161.50 1.55165
162.00 1.55228
162.50 1.55301
163.00 1.55384
163.50 1.55497
164.00 1.55634
164.50 1.55780
165.00 1.55919
165.50 1.56063
166.00 1.56181
166.50 1.56299
167.00 1.56384
167.50 1.56474
168.00 1.56573
168.50 1.56453
169.00 1.56316
169.50 1.56190
170.00 1.56134
170.50 1.56088
171.00 1.55969
171.50 1.55781
172.00 1.55606
172.50 1.55508
173.00 1.55473
173.50 1.55452
174.00 1.55443
174.50 1.55447
175.00 1.55478
175.50 1.55532
176.00 1.55608
176.50 1.55792
177.00 1.55943
177.50 1.56047
178.00 1.56162
178.50 1.56297
179.00 1.56386
179.50 1.56485
180.00 1.56595
180.00 1.56595
180.50 1.56485
181.00 1.56386
181.50 1.56297
182.00 1.56162
182.50 1.56047
183.00 1.55943
183.50 1.55792
184.00 1.55608
184.50 1.55532
185.00 1.55478
185.50 1.55447
186.00 1.55443
186.50 1.55452
187.00 1.55473
187.50 1.55508
188.00 1.55606
188.50 1.55781
189.00 1.55969
189.50 1.56088
190.00 1.56134
190.50 1.56190
191.00 1.56316
191.50 1.56453
192.00 1.56573
192.50 1.56474
193.00 1.56384
193.50 1.56299
194.00 1.56181
194.50 1.56063
195.00 1.55919
195.50 1.55780
196.00 1.55634
196.50 1.55497
197.00 1.55384
197.50 1.55301
198.00 1.55228
198.50 1.55165
199.00 1.55051
199.50 1.54747
200.00 1.54325
200.50 1.54184
201.00 1.54049
201.50 1.53917
202.00 1.53425
202.50 1.52506
203.00 1.51590
203.50 1.50782
204.00 1.50132
204.50 1.48554
205.00 1.46812
205.50 1.45319
206.00 1.43830
206.50 1.42345
207.00 1.40617
207.50 1.38764
208.00 1.36927
208.50 1.35222
209.00 1.33525
209.50 1.31881
210.00 1.30262
210.50 1.28649
211.00 1.27026
211.50 1.25353
212.00 1.23553
212.50 1.21971
213.00 1.20429
213.50 1.18891
214.00 1.17163
214.50 1.15286
215.00 1.13439
215.50 1.11636
216.00 1.09718
216.50 1.07646
217.00 1.05578
217.50 1.03444
218.00 1.01423
218.50 0.99413
219.00 0.97409
219.50 0.95380
220.00 0.93519
220.50 0.91655
221.00 0.89790
221.50 0.87955
222.00 0.86275
222.50 0.84569
223.00 0.82916
223.50 0.81341
224.00 0.79737
224.50 0.78158
225.00 0.76644
225.50 0.75156
226.00 0.73624
226.50 0.72101
227.00 0.70615
227.50 0.69120
228.00 0.67580
228.50 0.66134
229.00 0.64624
229.50 0.62995
230.00 0.61410
230.50 0.60020
231.00 0.58627
231.50 0.56953
232.00 0.55199
232.50 0.53439
233.00 0.51889
233.50 0.50485
234.00 0.49016
234.50 0.47082
235.00 0.45118
235.50 0.43140
236.00 0.41170
236.50 0.39296
237.00 0.37409
237.50 0.35205
238.00 0.32910
238.50 0.30601
239.00 0.28017
239.50 0.25270
240.00 0.22525
240.50 0.20576
241.00 0.18619
241.50 0.16654
242.00 0.14336
242.50 0.12013
243.00 0.10519
243.50 0.09035
244.00 0.07891
244.50 0.06753
245.00 0.05788
245.50 0.05076
246.00 0.04363
246.50 0.03648
247.00 0.03066
247.50 0.02721
248.00 0.02374
248.50 0.02023
249.00 0.01672
249.50 0.01472
250.00 0.01291
250.50 0.01104
251.00 0.00917
251.50 0.00790
252.00 0.00692
252.50 0.00594
253.00 0.00496
253.50 0.00428
254.00 0.00375
254.50 0.00326
255.00 0.00276
255.50 0.00234
256.00 0.00207
256.50 0.00179
257.00 0.00156
257.50 0.00136
258.00 0.00117
258.50 0.00105
259.00 0.00093
259.50 0.00080
260.00 0.00072
260.50 0.00064
261.00 0.00058
261.50 0.00053
262.00 0.00047
262.50 0.00042
263.00 0.00039
263.50 0.00036
264.00 0.00032
264.50 0.00029
265.00 0.00026
265.50 0.00023
266.00 0.00020
266.50 0.00018
267.00 0.00015
267.50 0.00012
268.00 0.00010
268.50 0.00007
269.00 0.00007
269.50 0.00006
270.00 0.00005
270.00 0.00005
270.50 0.00006
271.00 0.00007
271.50 0.00007
272.00 0.00010
272.50 0.00012
273.00 0.00015
273.50 0.00018
274.00 0.00020
274.50 0.00023
275.00 0.00026
275.50 0.00029
276.00 0.00032
276.50 0.00036
277.00 0.00039
277.50 0.00042
278.00 0.00047
278.50 0.00053
279.00 0.00058
279.50 0.00064
280.00 0.00072
280.50 0.00080
281.00 0.00093
281.50 0.00105
282.00 0.00117
282.50 0.00136
283.00 0.00156
283.50 0.00179
284.00 0.00207
284.50 0.00234
285.00 0.00276
285.50 0.00326
286.00 0.00375
286.50 0.00428
287.00 0.00496
287.50 0.00594
288.00 0.00692
288.50 0.00790
289.00 0.00917
289.50 0.01104
290.00 0.01291
290.50 0.01472
291.00 0.01672
291.50 0.02023
292.00 0.02374
292.50 0.02721
293.00 0.03066
293.50 0.03648
294.00 0.04363
294.50 0.05076
295.00 0.05788
295.50 0.06753
296.00 0.07891
296.50 0.09035
297.00 0.10519
297.50 0.12013
298.00 0.14336
298.50 0.16654
299.00 0.18619
299.50 0.20576
300.00 0.22525
300.50 0.25270
301.00 0.28017
301.50 0.30601
302.00 0.32910
302.50 0.35205
303.00 0.37409
303.50 0.39296
304.00 0.41170
304.50 0.43140
305.00 0.45118
305.50 0.47082
306.00 0.49016
306.50 0.50485
307.00 0.51889
307.50 0.53439
308.00 0.55199
308.50 0.56953
309.00 0.58627
309.50 0.60020
310.00 0.61410
310.50 0.62995
311.00 0.64624
311.50 0.66134
312.00 0.67580
312.50 0.69120
313.00 0.70615
313.50 0.72101
314.00 0.73624
314.50 0.75156
315.00 0.76644
315.50 0.78158
316.00 0.79737
316.50 0.81341
317.00 0.82916
317.50 0.84569
318.00 0.86275
318.50 0.87955
319.00 0.89790
319.50 0.91655
320.00 0.93519
320.50 0.95380
321.00 0.97409
321.50 0.99413
322.00 1.01423
322.50 1.03444
323.00 1.05578
323.50 1.07646
324.00 1.09718
324.50 1.11636
325.00 1.13439
325.50 1.15286
326.00 1.17163
326.50 1.18891
327.00 1.20429
327.50 1.21971
328.00 1.23553
328.50 1.25353
329.00 1.27026
329.50 1.28649
330.00 1.30262
330.50 1.31881
331.00 1.33525
331.50 1.35222
332.00 1.36927
332.50 1.38764
333.00 1.40617
333.50 1.42345
334.00 1.43830
334.50 1.45319
335.00 1.46812
335.50 1.48554
336.00 1.50132
336.50 1.50782
337.00 1.51590
337.50 1.52506
338.00 1.53425
338.50 1.53917
339.00 1.54049
339.50 1.54184
340.00 1.54325
340.50 1.54747
341.00 1.55051
341.50 1.55165
342.00 1.55228
342.50 1.55301
343.00 1.55384
343.50 1.55497
344.00 1.55634
344.50 1.55780
345.00 1.55919
345.50 1.56063
346.00 1.56181
346.50 1.56299
347.00 1.56384
347.50 1.56474
348.00 1.56573
348.50 1.56453
349.00 1.56316
349.50 1.56190
350.00 1.56134
350.50 1.56088
351.00 1.55969
351.50 1.55781
352.00 1.55606
352.50 1.55508
353.00 1.55473
353.50 1.55452
354.00 1.55443
354.50 1.55447
355.00 1.55478
355.50 1.55532
356.00 1.55608
356.50 1.55792
357.00 1.55943
357.50 1.56047
358.00 1.56162
358.50 1.56297
359.00 1.56386
359.50 1.56485
360.00 1.56595
