phi[deg] B[T]
0.00 1.38696
0.50 1.38616
1.00 1.38545
1.50 1.38485
2.00 1.38397
2.50 1.38329
3.00 1.38271
3.50 1.38187
4.00 1.38085
4.50 1.38067
5.00 1.38068
5.50 1.38102
6.00 1.38175
6.50 1.38260
7.00 1.38333
7.50 1.38415
8.00 1.38564
8.50 1.38798
9.00 1.39041
9.50 1.39198
10.00 1.39262
10.50 1.39334
11.00 1.39465
11.50 1.39605
12.00 1.39723
12.50 1.39590
13.00 1.39466
13.50 1.39340
14.00 1.39147
14.50 1.38949
15.00 1.38705
15.50 1.38475
16.00 1.38272
16.50 1.38079
17.00 1.37903
17.50 1.37750
18.00 1.37606
18.50 1.37471
19.00 1.37302
19.50 1.36997
20.00 1.36611
20.50 1.36460
21.00 1.36313
21.50 1.36171
22.00 1.35742
22.50 1.34976
23.00 1.34212
23.50 1.33550
24.00 1.33037
24.50 1.31761
25.00 1.30344
25.50 1.29105
26.00 1.27870
26.50 1.26639
27.00 1.25205
27.50 1.23669
28.00 1.22143
28.50 1.20704
29.00 1.19271
29.50 1.17880
30.00 1.16508
30.50 1.15142
31.00 1.13763
31.50 1.12331
32.00 1.10764
32.50 1.09409
33.00 1.08092
33.50 1.06778
34.00 1.05269
34.50 1.03605
35.00 1.01987
35.50 1.00437
36.00 0.98736
36.50 0.96834
37.00 0.94933
37.50 0.92987
38.00 0.91066
38.50 0.89151
39.00 0.87238
39.50 0.85274
40.00 0.83343
40.50 0.81462
41.00 0.79592
41.50 0.77731
42.00 0.75912
42.50 0.74134
43.00 0.72370
43.50 0.70671
44.00 0.68984
44.50 0.67384
45.00 0.65785
45.50 0.64310
46.00 0.62850
46.50 0.61562
47.00 0.60265
47.50 0.59168
48.00 0.58060
48.50 0.57187
49.00 0.56371
49.50 0.55417
50.00 0.54517
50.50 0.54027
51.00 0.53569
51.50 0.52679
52.00 0.51609
52.50 0.50533
53.00 0.49766
53.50 0.49080
54.00 0.48187
54.50 0.46689
55.00 0.45158
55.50 0.43611
56.00 0.42047
56.50 0.40454
57.00 0.38847
57.50 0.36767
58.00 0.34563
58.50 0.32342
59.00 0.29726
59.50 0.26875
60.00 0.24026
60.50 0.21994
61.00 0.19952
61.50 0.17900
62.00 0.15419
62.50 0.12932
63.00 0.11310
63.50 0.09698
64.00 0.08480
64.50 0.07268
65.00 0.06236
65.50 0.05468
66.00 0.04698
66.50 0.03927
67.00 0.03302
67.50 0.02930
68.00 0.02557
68.50 0.02179
69.00 0.01801
69.50 0.01585
70.00 0.01390
70.50 0.01189
71.00 0.00988
71.50 0.00851
72.00 0.00745
72.50 0.00639
73.00 0.00533
73.50 0.00460
74.00 0.00402
74.50 0.00349
75.00 0.00296
75.50 0.00250
76.00 0.00220
76.50 0.00191
77.00 0.00166
77.50 0.00143
78.00 0.00122
78.50 0.00109
79.00 0.00096
79.50 0.00083
80.00 0.00073
80.50 0.00064
81.00 0.00058
81.50 0.00052
82.00 0.00046
82.50 0.00041
83.00 0.00037
83.50 0.00034
84.00 0.00031
84.50 0.00027
85.00 0.00024
85.50 0.00021
86.00 0.00019
86.50 0.00016
87.00 0.00014
87.50 0.00011
88.00 0.00009
88.50 0.00007
89.00 0.00006
89.50 0.00005
90.00 0.00004
90.00 0.00004
90.50 0.00005
91.00 0.00006
91.50 0.00007
92.00 0.00009
92.50 0.00011
93.00 0.00014
93.50 0.00016
94.00 0.00019
94.50 0.00021
95.00 0.00024
95.50 0.00027
96.00 0.00031
96.50 0.00034
97.00 0.00037
97.50 0.00041
98.00 0.00046
98.50 0.00052
99.00 0.00058
99.50 0.00064
100.00 0.00073
100.50 0.00083
101.00 0.00096
101.50 0.00109
102.00 0.00122
102.50 0.00143
103.00 0.00166
103.50 0.00191
104.00 0.00220
104.50 0.00250
105.00 0.00296
105.50 0.00349
106.00 0.00402
106.50 0.00460
107.00 0.00533
107.50 0.00639
108.00 0.00745
108.50 0.00851
109.00 0.00988
109.50 0.01189
110.00 0.01390
110.50 0.01585
111.00 0.01801
111.50 0.02179
112.00 0.02557
112.50 0.02930
113.00 0.03302
113.50 0.03927
114.00 0.04698
114.50 0.05468
115.00 0.06236
115.50 0.07268
116.00 0.08480
116.50 0.09698
117.00 0.11310
117.50 0.12932
118.00 0.15419
118.50 0.17900
119.00 0.19952
119.50 0.21994
120.00 0.24026
120.50 0.26875
121.00 0.29726
121.50 0.32342
122.00 0.34563
122.50 0.36767
123.00 0.38847
123.50 0.40454
124.00 0.42047
124.50 0.43611
125.00 0.45158
125.50 0.46689
126.00 0.48187
126.50 0.49080
127.00 0.49766
127.50 0.50533
128.00 0.51609
128.50 0.52679
129.00 0.53569
129.50 0.54027
130.00 0.54517
130.50 0.55417
131.00 0.56371
131.50 0.57187
132.00 0.58060
132.50 0.59168
133.00 0.60265
133.50 0.61562
134.00 0.62850
134.50 0.64310
135.00 0.65785
135.50 0.67384
136.00 0.68984
136.50 0.70671
137.00 0.72370
137.50 0.74134
138.00 0.75912
138.50 0.77731
139.00 0.79592
139.50 0.81462
140.00 0.83343
140.50 0.85274
141.00 0.87238
141.50 0.89151
142.00 0.91066
142.50 0.92987
143.00 0.94933
143.50 0.96834
144.00 0.98736
144.50 1.00437
145.00 1.01987
145.50 1.03605
146.00 1.05269
146.50 1.06778
147.00 1.08092
147.50 1.09409
148.00 1.10764
148.50 1.12331
149.00 1.13763
149.50 1.15142
150.00 1.16508
150.50 1.17880
151.00 1.19271
151.50 1.20704
152.00 1.22143
152.50 1.23669
153.00 1.25205
153.50 1.26639
154.00 1.27870
154.50 1.29105
155.00 1.30344
155.50 1.31761
156.00 1.33037
156.50 1.33550
157.00 1.34212
157.50 1.34976
158.00 1.35742
158.50 1.36171
159.00 1.36313
159.50 1.36460
160.00 1.36611
160.50 1.36997
161.00 1.37302
161.50 1.37471
162.00 1.37606
162.50 1.37750
163.00 1.37903
163.50 1.38079
164.00 1.38272
164.50 1.38475
165.00 1.38705
165.50 1.38949
166.00 1.39147
166.50 1.39340
167.00 1.39466
167.50 1.39590
168.00 1.39723
168.50 1.39605
169.00 1.39465
169.50 1.39334
170.00 1.39262
170.50 1.39198
171.00 1.39041
171.50 1.38798
172.00 1.38564
172.50 1.38415
173.00 1.38333
173.50 1.38260
174.00 1.38175
174.50 1.38102
175.00 1.38068
175.50 1.38067
176.00 1.38085
176.50 1.38187
177.00 1.38271
177.50 1.38329
178.00 1.38397
178.50 1.38485
179.00 1.38545
179.50 1.38616
180.00 1.38696
180.00 1.38696
180.50 1.38616
181.00 1.38545
181.50 1.38485
182.00 1.38397
182.50 1.38329
183.00 1.38271
183.50 1.38187
184.00 1.38085
184.50 1.38067
185.00 1.38068
185.50 1.38102
186.00 1.38175
186.50 1.38260
187.00 1.38333
187.50 1.38415
188.00 1.38564
188.50 1.38798
189.00 1.39041
189.50 1.39198
190.00 1.39262
190.50 1.39334
191.00 1.39465
191.50 1.39605
192.00 1.39723
192.50 1.39590
193.00 1.39466
193.50 1.39340
194.00 1.39147
194.50 1.38949
195.00 1.38705
195.50 1.38475
196.00 1.38272
196.50 1.38079
197.00 1.37903
197.50 1.37750
198.00 1.37606
198.50 1.37471
199.00 1.37302
199.50 1.36997
200.00 1.36611
200.50 1.36460
201.00 1.36313
201.50 1.36171
202.00 1.35742
202.50 1.34976
203.00 1.34212
203.50 1.33550
204.00 1.33037
204.50 1.31761
205.00 1.30344
205.50 1.29105
206.00 1.27870
206.50 1.26639
207.00 1.25205
207.50 1.23669
208.00 1.22143
208.50 1.20704
209.00 1.19271
209.50 1.17880
210.00 1.16508
210.50 1.15142
211.00 1.13763
211.50 1.12331
212.00 1.10764
212.50 1.09409
213.00 1.08092
213.50 1.06778
214.00 1.05269
214.50 1.03605
215.00 1.01987
215.50 1.00437
216.00 0.98736
216.50 0.96834
217.00 0.94933
217.50 0.92987
218.00 0.91066
218.50 0.89151
219.00 0.87238
219.50 0.85274
220.00 0.83343
220.50 0.81462
221.00 0.79592
221.50 0.77731
222.00 0.75912
222.50 0.74134
223.00 0.72370
223.50 0.70671
224.00 0.68984
224.50 0.67384
225.00 0.65785
225.50 0.64310
226.00 0.62850
226.50 0.61562
227.00 0.60265
227.50 0.59168
228.00 0.58060
228.50 0.57187
229.00 0.56371
229.50 0.55417
230.00 0.54517
230.50 0.54027
231.00 0.53569
231.50 0.52679
232.00 0.51609
232.50 0.50533
233.00 0.49766
233.50 0.49080
234.00 0.48187
234.50 0.46689
235.00 0.45158
235.50 0.43611
236.00 0.42047
236.50 0.40454
237.00 0.38847
237.50 0.36767
238.00 0.34563
238.50 0.32342
239.00 0.29726
239.50 0.26875
240.00 0.24026
240.50 0.21994
241.00 0.19952
241.50 0.17900
242.00 0.15419
242.50 0.12932
243.00 0.11310
243.50 0.09698
244.00 0.08480
244.50 0.07268
245.00 0.06236
245.50 0.05468
246.00 0.04698
246.50 0.03927
247.00 0.03302
247.50 0.02930
248.00 0.02557
248.50 0.02179
249.00 0.01801
249.50 0.01585
250.00 0.01390
250.50 0.01189
251.00 0.00988
251.50 0.00851
252.00 0.00745
252.50 0.00639
253.00 0.00533
253.50 0.00460
254.00 0.00402
254.50 0.00349
255.00 0.00296
255.50 0.00250
256.00 0.00220
256.50 0.00191
257.00 0.00166
257.50 0.00143
258.00 0.00122
258.50 0.00109
259.00 0.00096
259.50 0.00083
260.00 0.00073
260.50 0.00064
261.00 0.00058
261.50 0.00052
262.00 0.00046
262.50 0.00041
263.00 0.00037
263.50 0.00034
264.00 0.00031
264.50 0.00027
265.00 0.00024
265.50 0.00021
266.00 0.00019
266.50 0.00016
267.00 0.00014
267.50 0.00011
268.00 0.00009
268.50 0.00007
269.00 0.00006
269.50 0.00005
270.00 0.00004
270.00 0.00004
270.50 0.00005
271.00 0.00006
271.50 0.00007
272.00 0.00009
272.50 0.00011
273.00 0.00014
273.50 0.00016
274.00 0.00019
274.50 0.00021
275.00 0.00024
275.50 0.00027
276.00 0.00031
276.50 0.00034
277.00 0.00037
277.50 0.00041
278.00 0.00046
278.50 0.00052
279.00 0.00058
279.50 0.00064
280.00 0.00073
280.50 0.00083
281.00 0.00096
281.50 0.00109
282.00 0.00122
282.50 0.00143
283.00 0.00166
283.50 0.00191
284.00 0.00220
284.50 0.00250
285.00 0.00296
285.50 0.00349
286.00 0.00402
286.50 0.00460
287.00 0.00533
287.50 0.00639
288.00 0.00745
288.50 0.00851
289.00 0.00988
289.50 0.01189
290.00 0.01390
290.50 0.01585
291.00 0.01801
291.50 0.02179
292.00 0.02557
292.50 0.02930
293.00 0.03302
293.50 0.03927
294.00 0.04698
294.50 0.05468
295.00 0.06236
295.50 0.07268
296.00 0.08480
296.50 0.09698
297.00 0.11310
297.50 0.12932
298.00 0.15419
298.50 0.17900
299.00 0.19952
299.50 0.21994
300.00 0.24026
300.50 0.26875
301.00 0.29726
301.50 0.32342
302.00 0.34563
302.50 0.36767
303.00 0.38847
303.50 0.40454
304.00 0.42047
304.50 0.43611
305.00 0.45158
305.50 0.46689
306.00 0.48187
306.50 0.49080
307.00 0.49766
307.50 0.50533
308.00 0.51609
308.50 0.52679
309.00 0.53569
309.50 0.54027
310.00 0.54517
310.50 0.55417
311.00 0.56371
311.50 0.57187
312.00 0.58060
312.50 0.59168
313.00 0.60265
313.50 0.61562
314.00 0.62850
314.50 0.64310
315.00 0.65785
315.50 0.67384
316.00 0.68984
316.50 0.70671
317.00 0.72370
317.50 0.74134
318.00 0.75912
318.50 0.77731
319.00 0.79592
319.50 0.81462
320.00 0.83343
320.50 0.85274
321.00 0.87238
321.50 0.89151
322.00 0.91066
322.50 0.92987
323.00 0.94933
323.50 0.96834
324.00 0.98736
324.50 1.00437
325.00 1.01987
325.50 1.03605
326.00 1.05269
326.50 1.06778
327.00 1.08092
327.50 1.09409
328.00 1.10764
328.50 1.12331
329.00 1.13763
329.50 1.15142
330.00 1.16508
330.50 1.17880
331.00 1.19271
331.50 1.20704
332.00 1.22143
332.50 1.23669
333.00 1.25205
333.50 1.26639
334.00 1.27870
334.50 1.29105
335.00 1.30344
335.50 1.31761
336.00 1.33037
336.50 1.33550
337.00 1.34212
337.50 1.34976
338.00 1.35742
338.50 1.36171
339.00 1.36313
339.50 1.36460
340.00 1.36611
340.50 1.36997
341.00 1.37302
341.50 1.37471
342.00 1.37606
342.50 1.37750
343.00 1.37903
343.50 1.38079
344.00 1.38272
344.50 1.38475
345.00 1.38705
345.50 1.38949
346.00 1.39147
346.50 1.39340
347.00 1.39466
347.50 1.39590
348.00 1.39723
348.50 1.39605
349.00 1.39465
349.50 1.39334
350.00 1.39262
350.50 1.39198
351.00 1.39041
351.50 1.38798
352.00 1.38564
352.50 1.38415
353.00 1.38333
353.50 1.38260
354.00 1.38175
354.50 1.38102
355.00 1.38068
355.50 1.38067
356.00 1.38085
356.50 1.38187
357.00 1.38271
357.50 1.38329
358.00 1.38397
358.50 1.38485
359.00 1.38545
359.50 1.38616
360.00 1.38696
