phi[deg] B[T]
0.00 1.72216
0.50 1.72154
1.00 1.72105
1.50 1.72069
2.00 1.72042
2.50 1.72012
3.00 1.71996
3.50 1.71994
4.00 1.72007
4.50 1.72045
5.00 1.72097
5.50 1.72192
6.00 1.72322
6.50 1.72464
7.00 1.72579
7.50 1.72694
8.00 1.72822
8.50 1.72964
9.00 1.73246
9.50 1.73556
10.00 1.73770
10.50 1.73894
11.00 1.73952
11.50 1.74019
12.00 1.74097
12.50 1.74005
13.00 1.73849
13.50 1.73694
14.00 1.73487
14.50 1.73291
15.00 1.73104
15.50 1.72861
16.00 1.72616
16.50 1.72363
17.00 1.72010
17.50 1.71667
18.00 1.71334
18.50 1.71060
19.00 1.70930
19.50 1.70770
20.00 1.70586
20.50 1.70032
21.00 1.69482
21.50 1.68937
22.00 1.68383
22.50 1.67690
23.00 1.67002
23.50 1.66027
24.00 1.64795
24.50 1.63565
25.00 1.62336
25.50 1.60625
26.00 1.58909
26.50 1.57188
27.00 1.55446
27.50 1.53710
28.00 1.51979
28.50 1.50208
29.00 1.48392
29.50 1.46699
30.00 1.44973
30.50 1.43163
31.00 1.41359
31.50 1.39561
32.00 1.37795
32.50 1.36216
33.00 1.34643
33.50 1.32762
34.00 1.30759
34.50 1.28760
35.00 1.26764
35.50 1.24853
36.00 1.23095
36.50 1.21019
37.00 1.18795
37.50 1.16614
38.00 1.14437
38.50 1.12262
39.00 1.10065
39.50 1.07867
40.00 1.05655
40.50 1.03447
41.00 1.01230
41.50 0.99062
42.00 0.96916
42.50 0.94769
43.00 0.92631
43.50 0.90547
44.00 0.88469
44.50 0.86397
45.00 0.84332
45.50 0.82355
46.00 0.80380
46.50 0.78488
47.00 0.76650
47.50 0.74820
48.00 0.73125
48.50 0.71424
49.00 0.69840
49.50 0.68239
50.00 0.66638
50.50 0.65471
51.00 0.64378
51.50 0.62758
52.00 0.60936
52.50 0.59109
53.00 0.57297
53.50 0.56169
54.00 0.55031
54.50 0.53520
55.00 0.51832
55.50 0.50103
56.00 0.47873
56.50 0.45628
57.00 0.43367
57.50 0.40789
58.00 0.38188
58.50 0.35573
59.00 0.33021
59.50 0.30527
60.00 0.27938
60.50 0.25310
61.00 0.22671
61.50 0.20021
62.00 0.17765
62.50 0.16004
63.00 0.14201
63.50 0.12395
64.00 0.10588
64.50 0.09255
65.00 0.08240
65.50 0.07224
66.00 0.06220
66.50 0.05252
67.00 0.04688
67.50 0.04149
68.00 0.03609
68.50 0.03069
69.00 0.02634
69.50 0.02335
70.00 0.02035
70.50 0.01757
71.00 0.01492
71.50 0.01305
72.00 0.01164
72.50 0.01026
73.00 0.00890
73.50 0.00754
74.00 0.00644
74.50 0.00574
75.00 0.00504
75.50 0.00435
76.00 0.00382
76.50 0.00328
77.00 0.00285
77.50 0.00255
78.00 0.00224
78.50 0.00194
79.00 0.00169
79.50 0.00145
80.00 0.00130
80.50 0.00117
81.00 0.00104
81.50 0.00091
82.00 0.00079
82.50 0.00070
83.00 0.00064
83.50 0.00057
84.00 0.00051
84.50 0.00044
85.00 0.00040
85.50 0.00036
86.00 0.00033
86.50 0.00029
87.00 0.00027
87.50 0.00025
88.00 0.00023
88.50 0.00021
89.00 0.00020
89.50 0.00019
90.00 0.00019
90.00 0.00019
90.50 0.00019
91.00 0.00020
91.50 0.00021
92.00 0.00023
92.50 0.00025
93.00 0.00027
93.50 0.00029
94.00 0.00033
94.50 0.00036
95.00 0.00040
95.50 0.00044
96.00 0.00051
96.50 0.00057
97.00 0.00064
97.50 0.00070
98.00 0.00079
98.50 0.00091
99.00 0.00104
99.50 0.00117
100.00 0.00130
100.50 0.00145
101.00 0.00169
101.50 0.00194
102.00 0.00224
102.50 0.00255
103.00 0.00285
103.50 0.00328
104.00 0.00382
104.50 0.00435
105.00 0.00504
105.50 0.00574
106.00 0.00644
106.50 0.00754
107.00 0.00890
107.50 0.01026
108.00 0.01164
108.50 0.01305
109.00 0.01492
109.50 0.01757
110.00 0.02035
110.50 0.02335
111.00 0.02634
111.50 0.03069
112.00 0.03609
112.50 0.04149
113.00 0.04688
113.50 0.05252
114.00 0.06220
114.50 0.07224
115.00 0.08240
115.50 0.09255
116.00 0.10588
116.50 0.12395
117.00 0.14201
117.50 0.16004
118.00 0.17765
118.50 0.20021
119.00 0.22671
119.50 0.25310
120.00 0.27938
120.50 0.30527
121.00 0.33021
121.50 0.35573
122.00 0.38188
122.50 0.40789
123.00 0.43367
123.50 0.45628
124.00 0.47873
124.50 0.50103
125.00 0.51832
125.50 0.53520
126.00 0.55031
126.50 0.56169
127.00 0.57297
127.50 0.59109
128.00 0.60936
128.50 0.62758
129.00 0.64378
129.50 0.65471
130.00 0.66638
130.50 0.68239
131.00 0.69840
131.50 0.71424
132.00 0.73125
132.50 0.74820
133.00 0.76650
133.50 0.78488
134.00 0.80380
134.50 0.82355
135.00 0.84332
135.50 0.86397
136.00 0.88469
136.50 0.90547
137.00 0.92631
137.50 0.94769
138.00 0.96916
138.50 0.99062
139.00 1.01230
139.50 1.03447
140.00 1.05655
140.50 1.07867
141.00 1.10065
141.50 1.12262
142.00 1.14437
142.50 1.16614
143.00 1.18795
143.50 1.21019
144.00 1.23095
144.50 1.24853
145.00 1.26764
145.50 1.28760
146.00 1.30759
146.50 1.32762
147.00 1.34643
147.50 1.36216
148.00 1.37795
148.50 1.39561
149.00 1.41359
149.50 1.43163
150.00 1.44973
150.50 1.46699
151.00 1.48392
151.50 1.50208
152.00 1.51979
152.50 1.53710
153.00 1.55446
153.50 1.57188
154.00 1.58909
154.50 1.60625
155.00 1.62336
155.50 1.63565
156.00 1.64795
156.50 1.66027
157.00 1.67002
157.50 1.67690
158.00 1.68383
158.50 1.68937
159.00 1.69482
159.50 1.70032
160.00 1.70586
160.50 1.70770
161.00 1.70930
161.50 1.71060
162.00 1.71334
162.50 1.71667
163.00 1.72010
163.50 1.72363
164.00 1.72616
164.50 1.72861
165.00 1.73104
165.50 1.73291
166.00 1.73487
166.50 1.73694
167.00 1.73849
167.50 1.74005
168.00 1.74097
168.50 1.74019
169.00 1.73952
169.50 1.73894
170.00 1.73770
170.50 1.73556
171.00 1.73246
171.50 1.72964
172.00 1.72822
172.50 1.72694
173.00 1.72579
173.50 1.72464
174.00 1.72322
174.50 1.72192
175.00 1.72097
175.50 1.72045
176.00 1.72007
176.50 1.71994
177.00 1.71996
177.50 1.72012
178.00 1.72042
178.50 1.72069
179.00 1.72105
179.50 1.72154
180.00 1.72216
180.00 1.72216
180.50 1.72154
181.00 1.72105
181.50 1.72069
182.00 1.72042
182.50 1.72012
183.00 1.71996
183.50 1.71994
184.00 1.72007
184.50 1.72045
185.00 1.72097
185.50 1.72192
186.00 1.72322
186.50 1.72464
187.00 1.72579
187.50 1.72694
188.00 1.72822
188.50 1.72964
189.00 1.73246
189.50 1.73556
190.00 1.73770
190.50 1.73894
191.00 1.73952
191.50 1.74019
192.00 1.74097
192.50 1.74005
193.00 1.73849
193.50 1.73694
194.00 1.73487
194.50 1.73291
195.00 1.73104
195.50 1.72861
196.00 1.72616
196.50 1.72363
197.00 1.72010
197.50 1.71667
198.00 1.71334
198.50 1.71060
199.00 1.70930
199.50 1.70770
200.00 1.70586
200.50 1.70032
201.00 1.69482
201.50 1.68937
202.00 1.68383
202.50 1.67690
203.00 1.67002
203.50 1.66027
204.00 1.64795
204.50 1.63565
205.00 1.62336
205.50 1.60625
206.00 1.58909
206.50 1.57188
207.00 1.55446
207.50 1.53710
208.00 1.51979
208.50 1.50208
209.00 1.48392
209.50 1.46699
210.00 1.44973
210.50 1.43163
211.00 1.41359
211.50 1.39561
212.00 1.37795
212.50 1.36216
213.00 1.34643
213.50 1.32762
214.00 1.30759
214.50 1.28760
215.00 1.26764
215.50 1.24853
216.00 1.23095
216.50 1.21019
217.00 1.18795
217.50 1.16614
218.00 1.14437
218.50 1.12262
219.00 1.10065
219.50 1.07867
220.00 1.05655
220.50 1.03447
221.00 1.01230
221.50 0.99062
222.00 0.96916
222.50 0.94769
223.00 0.92631
223.50 0.90547
224.00 0.88469
224.50 0.86397
225.00 0.84332
225.50 0.82355
226.00 0.80380
226.50 0.78488
227.00 0.76650
227.50 0.74820
228.00 0.73125
228.50 0.71424
229.00 0.69840
229.50 0.68239
230.00 0.66638
230.50 0.65471
231.00 0.64378
231.50 0.62758
232.00 0.60936
232.50 0.59109
233.00 0.57297
233.50 0.56169
234.00 0.55031
234.50 0.53520
235.00 0.51832
235.50 0.50103
236.00 0.47873
236.50 0.45628
237.00 0.43367
237.50 0.40789
238.00 0.38188
238.50 0.35573
239.00 0.33021
239.50 0.30527
240.00 0.27938
240.50 0.25310
241.00 0.22671
241.50 0.20021
242.00 0.17765
242.50 0.16004
243.00 0.14201
243.50 0.12395
244.00 0.10588
244.50 0.09255
245.00 0.08240
245.50 0.07224
246.00 0.06220
246.50 0.05252
247.00 0.04688
247.50 0.04149
248.00 0.03609
248.50 0.03069
249.00 0.02634
249.50 0.02335
250.00 0.02035
250.50 0.01757
251.00 0.01492
251.50 0.01305
252.00 0.01164
252.50 0.01026
253.00 0.00890
253.50 0.00754
254.00 0.00644
254.50 0.00574
255.00 0.00504
255.50 0.00435
256.00 0.00382
256.50 0.00328
257.00 0.00285
257.50 0.00255
258.00 0.00224
258.50 0.00194
259.00 0.00169
259.50 0.00145
260.00 0.00130
260.50 0.00117
261.00 0.00104
261.50 0.00091
262.00 0.00079
262.50 0.00070
263.00 0.00064
263.50 0.00057
264.00 0.00051
264.50 0.00044
265.00 0.00040
265.50 0.00036
266.00 0.00033
266.50 0.00029
267.00 0.00027
267.50 0.00025
268.00 0.00023
268.50 0.00021
269.00 0.00020
269.50 0.00019
270.00 0.00019
270.00 0.00019
270.50 0.00019
271.00 0.00020
271.50 0.00021
272.00 0.00023
272.50 0.00025
273.00 0.00027
273.50 0.00029
274.00 0.00033
274.50 0.00036
275.00 0.00040
275.50 0.00044
276.00 0.00051
276.50 0.00057
277.00 0.00064
277.50 0.00070
278.00 0.00079
278.50 0.00091
279.00 0.00104
279.50 0.00117
280.00 0.00130
280.50 0.00145
281.00 0.00169
281.50 0.00194
282.00 0.00224
282.50 0.00255
283.00 0.00285
283.50 0.00328
284.00 0.00382
284.50 0.00435
285.00 0.00504
285.50 0.00574
286.00 0.00644
286.50 0.00754
287.00 0.00890
287.50 0.01026
288.00 0.01164
288.50 0.01305
289.00 0.01492
289.50 0.01757
290.00 0.02035
290.50 0.02335
291.00 0.02634
291.50 0.03069
292.00 0.03609
292.50 0.04149
293.00 0.04688
293.50 0.05252
294.00 0.06220
294.50 0.07224
295.00 0.08240
295.50 0.09255
296.00 0.10588
296.50 0.12395
297.00 0.14201
297.50 0.16004
298.00 0.17765
298.50 0.20021
299.00 0.22671
299.50 0.25310
300.00 0.27938
300.50 0.30527
301.00 0.33021
301.50 0.35573
302.00 0.38188
302.50 0.40789
303.00 0.43367
303.50 0.45628
304.00 0.47873
304.50 0.50103
305.00 0.51832
305.50 0.53520
306.00 0.55031
306.50 0.56169
307.00 0.57297
307.50 0.59109
308.00 0.60936
308.50 0.62758
309.00 0.64378
309.50 0.65471
310.00 0.66638
310.50 0.68239
311.00 0.69840
311.50 0.71424
312.00 0.73125
312.50 0.74820
313.00 0.76650
313.50 0.78488
314.00 0.80380
314.50 0.82355
315.00 0.84332
315.50 0.86397
316.00 0.88469
316.50 0.90547
317.00 0.92631
317.50 0.94769
318.00 0.96916
318.50 0.99062
319.00 1.01230
319.50 1.03447
320.00 1.05655
320.50 1.07867
321.00 1.10065
321.50 1.12262
322.00 1.14437
322.50 1.16614
323.00 1.18795
323.50 1.21019
324.00 1.23095
324.50 1.24853
325.00 1.26764
325.50 1.28760
326.00 1.30759
326.50 1.32762
327.00 1.34643
327.50 1.36216
328.00 1.37795
328.50 1.39561
329.00 1.41359
329.50 1.43163
330.00 1.44973
330.50 1.46699
331.00 1.48392
331.50 1.50208
332.00 1.51979
332.50 1.53710
333.00 1.55446
333.50 1.57188
334.00 1.58909
334.50 1.60625
335.00 1.62336
335.50 1.63565
336.00 1.64795
336.50 1.66027
337.00 1.67002
337.50 1.67690
338.00 1.68383
338.50 1.68937
339.00 1.69482
339.50 1.70032
340.00 1.70586
340.50 1.70770
341.00 1.70930
341.50 1.71060
342.00 1.71334
342.50 1.71667
343.00 1.72010
343.50 1.72363
344.00 1.72616
344.50 1.72861
345.00 1.73104
345.50 1.73291
346.00 1.73487
346.50 1.73694
347.00 1.73849
347.50 1.74005
348.00 1.74097
348.50 1.74019
349.00 1.73952
349.50 1.73894
350.00 1.73770
350.50 1.73556
351.00 1.73246
351.50 1.72964
352.00 1.72822
352.50 1.72694
353.00 1.72579
353.50 1.72464
354.00 1.72322
354.50 1.72192
355.00 1.72097
355.50 1.72045
356.00 1.72007
356.50 1.71994
357.00 1.71996
357.50 1.72012
358.00 1.72042
358.50 1.72069
359.00 1.72105
359.50 1.72154
360.00 1.72216
