phi[deg] B[T]
0.00 1.42858
0.50 1.42698
1.00 1.42586
1.50 1.42366
2.00 1.41901
2.50 1.41429
3.00 1.40950
3.50 1.40218
4.00 1.39476
4.50 1.38723
5.00 1.37770
5.50 1.36746
6.00 1.35491
6.50 1.34226
7.00 1.32902
7.50 1.31566
8.00 1.29692
8.50 1.27781
9.00 1.25859
9.50 1.24186
10.00 1.22128
10.50 1.19959
11.00 1.17773
11.50 1.15563
12.00 1.13292
12.50 1.10710
13.00 1.07838
13.50 1.04949
14.00 1.02043
14.50 0.99124
15.00 0.96147
15.50 0.93146
16.00 0.90123
16.50 0.86908
17.00 0.83486
17.50 0.79785
18.00 0.76062
18.50 0.72316
19.00 0.68550
19.50 0.65046
20.00 0.61589
20.50 0.58113
21.00 0.54619
21.50 0.50838
22.00 0.46676
22.50 0.43126
23.00 0.39929
23.50 0.36721
24.00 0.33474
24.50 0.30349
25.00 0.28114
25.50 0.25877
26.00 0.23637
26.50 0.21394
27.00 0.19149
27.50 0.16903
28.00 0.15298
28.50 0.13946
29.00 0.12747
29.50 0.11549
30.00 0.10352
30.50 0.09169
31.00 0.08221
31.50 0.07273
32.00 0.06653
32.50 0.06126
33.00 0.05600
33.50 0.05090
34.00 0.04585
34.50 0.04080
35.00 0.03576
35.50 0.03134
36.00 0.02876
36.50 0.02618
37.00 0.02359
37.50 0.02136
38.00 0.01938
38.50 0.01740
39.00 0.01543
39.50 0.01360
40.00 0.01232
40.50 0.01110
41.00 0.01016
41.50 0.00922
42.00 0.00828
42.50 0.00734
43.00 0.00660
43.50 0.00603
44.00 0.00546
44.50 0.00490
45.00 0.00433
45.50 0.00398
46.00 0.00363
46.50 0.00329
47.00 0.00294
47.50 0.00259
48.00 0.00239
48.50 0.00220
49.00 0.00200
49.50 0.00180
50.00 0.00161
50.50 0.00145
51.00 0.00132
51.50 0.00121
52.00 0.00112
52.50 0.00103
53.00 0.00095
53.50 0.00086
54.00 0.00078
54.50 0.00070
55.00 0.00067
55.50 0.00063
56.00 0.00060
56.50 0.00056
57.00 0.00053
57.50 0.00050
58.00 0.00046
58.50 0.00043
59.00 0.00042
59.50 0.00040
60.00 0.00039
60.50 0.00037
61.00 0.00036
61.50 0.00034
62.00 0.00032
62.50 0.00031
63.00 0.00030
63.50 0.00030
64.00 0.00029
64.50 0.00028
65.00 0.00027
65.50 0.00027
66.00 0.00026
66.50 0.00025
67.00 0.00025
67.50 0.00024
68.00 0.00023
68.50 0.00023
69.00 0.00022
69.50 0.00022
70.00 0.00021
70.50 0.00021
71.00 0.00020
71.50 0.00020
72.00 0.00019
72.50 0.00018
73.00 0.00018
73.50 0.00017
74.00 0.00017
74.50 0.00016
75.00 0.00016
75.50 0.00015
76.00 0.00015
76.50 0.00014
77.00 0.00014
77.50 0.00013
78.00 0.00013
78.50 0.00012
79.00 0.00012
79.50 0.00011
80.00 0.00011
80.50 0.00010
81.00 0.00010
81.50 0.00009
82.00 0.00009
82.50 0.00008
83.00 0.00008
83.50 0.00007
84.00 0.00007
84.50 0.00006
85.00 0.00006
85.50 0.00005
86.00 0.00005
86.50 0.00004
87.00 0.00003
87.50 0.00003
88.00 0.00003
88.50 0.00002
89.00 0.00002
89.50 0.00002
90.00 0.00002
90.00 0.00002
90.50 0.00002
91.00 0.00002
91.50 0.00002
92.00 0.00003
92.50 0.00003
93.00 0.00003
93.50 0.00004
94.00 0.00005
94.50 0.00005
95.00 0.00006
95.50 0.00006
96.00 0.00007
96.50 0.00007
97.00 0.00008
97.50 0.00008
98.00 0.00009
98.50 0.00009
99.00 0.00010
99.50 0.00010
100.00 0.00011
100.50 0.00011
101.00 0.00012
101.50 0.00012
102.00 0.00013
102.50 0.00013
103.00 0.00014
103.50 0.00014
104.00 0.00015
104.50 0.00015
105.00 0.00016
105.50 0.00016
106.00 0.00017
106.50 0.00017
107.00 0.00018
107.50 0.00018
108.00 0.00019
108.50 0.00020
109.00 0.00020
109.50 0.00021
110.00 0.00021
110.50 0.00022
111.00 0.00022
111.50 0.00023
112.00 0.00023
112.50 0.00024
113.00 0.00025
113.50 0.00025
114.00 0.00026
114.50 0.00027
115.00 0.00027
115.50 0.00028
116.00 0.00029
116.50 0.00030
117.00 0.00030
117.50 0.00031
118.00 0.00032
118.50 0.00034
119.00 0.00036
119.50 0.00037
120.00 0.00039
120.50 0.00040
121.00 0.00042
121.50 0.00043
122.00 0.00046
122.50 0.00050
123.00 0.00053
123.50 0.00056
124.00 0.00060
124.50 0.00063
125.00 0.00067
125.50 0.00070
126.00 0.00078
126.50 0.00086
127.00 0.00095
127.50 0.00103
128.00 0.00112
128.50 0.00121
129.00 0.00132
129.50 0.00145
130.00 0.00161
130.50 0.00180
131.00 0.00200
131.50 0.00220
132.00 0.00239
132.50 0.00259
133.00 0.00294
133.50 0.00329
134.00 0.00363
134.50 0.00398
135.00 0.00433
135.50 0.00490
136.00 0.00546
136.50 0.00603
137.00 0.00660
137.50 0.00734
138.00 0.00828
138.50 0.00922
139.00 0.01016
139.50 0.01110
140.00 0.01232
140.50 0.01360
141.00 0.01543
141.50 0.01740
142.00 0.01938
142.50 0.02136
143.00 0.02359
143.50 0.02618
144.00 0.02876
144.50 0.03134
145.00 0.03576
145.50 0.04080
146.00 0.04585
146.50 0.05090
147.00 0.05600
147.50 0.06126
148.00 0.06653
148.50 0.07273
149.00 0.08221
149.50 0.09169
150.00 0.10352
150.50 0.11549
151.00 0.12747
151.50 0.13946
152.00 0.15298
152.50 0.16903
153.00 0.19149
153.50 0.21394
154.00 0.23637
154.50 0.25877
155.00 0.28114
155.50 0.30349
156.00 0.33474
156.50 0.36721
157.00 0.39929
157.50 0.43126
158.00 0.46676
158.50 0.50838
159.00 0.54619
159.50 0.58113
160.00 0.61589
160.50 0.65046
161.00 0.68550
161.50 0.72316
162.00 0.76062
162.50 0.79785
163.00 0.83486
163.50 0.86908
164.00 0.90123
164.50 0.93146
165.00 0.96147
165.50 0.99124
166.00 1.02043
166.50 1.04949
167.00 1.07838
167.50 1.10710
168.00 1.13292
168.50 1.15563
169.00 1.17773
169.50 1.19959
170.00 1.22128
170.50 1.24186
171.00 1.25859
171.50 1.27781
172.00 1.29692
172.50 1.31566
173.00 1.32902
173.50 1.34226
174.00 1.35491
174.50 1.36746
175.00 1.37770
175.50 1.38723
176.00 1.39476
176.50 1.40218
177.00 1.40950
177.50 1.41429
178.00 1.41901
178.50 1.42366
179.00 1.42586
179.50 1.42698
180.00 1.42858
180.00 1.42858
180.50 1.42698
181.00 1.42586
181.50 1.42366
182.00 1.41901
182.50 1.41429
183.00 1.40950
183.50 1.40218
184.00 1.39476
184.50 1.38723
185.00 1.37770
185.50 1.36746
186.00 1.35491
186.50 1.34226
187.00 1.32902
187.50 1.31566
188.00 1.29692
188.50 1.27781
189.00 1.25859
189.50 1.24186
190.00 1.22128
190.50 1.19959
191.00 1.17773
191.50 1.15563
192.00 1.13292
192.50 1.10710
193.00 1.07838
193.50 1.04949
194.00 1.02043
194.50 0.99124
195.00 0.96147
195.50 0.93146
196.00 0.90123
196.50 0.86908
197.00 0.83486
197.50 0.79785
198.00 0.76062
198.50 0.72316
199.00 0.68550
199.50 0.65046
200.00 0.61589
200.50 0.58113
201.00 0.54619
201.50 0.50838
202.00 0.46676
202.50 0.43126
203.00 0.39929
203.50 0.36721
204.00 0.33474
204.50 0.30349
205.00 0.28114
205.50 0.25877
206.00 0.23637
206.50 0.21394
207.00 0.19149
207.50 0.16903
208.00 0.15298
208.50 0.13946
209.00 0.12747
209.50 0.11549
210.00 0.10352
210.50 0.09169
211.00 0.08221
211.50 0.07273
212.00 0.06653
212.50 0.06126
213.00 0.05600
213.50 0.05090
214.00 0.04585
214.50 0.04080
215.00 0.03576
215.50 0.03134
216.00 0.02876
216.50 0.02618
217.00 0.02359
217.50 0.02136
218.00 0.01938
218.50 0.01740
219.00 0.01543
219.50 0.01360
220.00 0.01232
220.50 0.01110
221.00 0.01016
221.50 0.00922
222.00 0.00828
222.50 0.00734
223.00 0.00660
223.50 0.00603
224.00 0.00546
224.50 0.00490
225.00 0.00433
225.50 0.00398
226.00 0.00363
226.50 0.00329
227.00 0.00294
227.50 0.00259
228.00 0.00239
228.50 0.00220
229.00 0.00200
229.50 0.00180
230.00 0.00161
230.50 0.00145
231.00 0.00132
231.50 0.00121
232.00 0.00112
232.50 0.00103
233.00 0.00095
233.50 0.00086
234.00 0.00078
234.50 0.00070
235.00 0.00067
235.50 0.00063
236.00 0.00060
236.50 0.00056
237.00 0.00053
237.50 0.00050
238.00 0.00046
238.50 0.00043
239.00 0.00042
239.50 0.00040
240.00 0.00039
240.50 0.00037
241.00 0.00036
241.50 0.00034
242.00 0.00032
242.50 0.00031
243.00 0.00030
243.50 0.00030
244.00 0.00029
244.50 0.00028
245.00 0.00027
245.50 0.00027
246.00 0.00026
246.50 0.00025
247.00 0.00025
247.50 0.00024
248.00 0.00023
248.50 0.00023
249.00 0.00022
249.50 0.00022
250.00 0.00021
250.50 0.00021
251.00 0.00020
251.50 0.00020
252.00 0.00019
252.50 0.00018
253.00 0.00018
253.50 0.00017
254.00 0.00017
254.50 0.00016
255.00 0.00016
255.50 0.00015
256.00 0.00015
256.50 0.00014
257.00 0.00014
257.50 0.00013
258.00 0.00013
258.50 0.00012
259.00 0.00012
259.50 0.00011
260.00 0.00011
260.50 0.00010
261.00 0.00010
261.50 0.00009
262.00 0.00009
262.50 0.00008
263.00 0.00008
263.50 0.00007
264.00 0.00007
264.50 0.00006
265.00 0.00006
265.50 0.00005
266.00 0.00005
266.50 0.00004
267.00 0.00003
267.50 0.00003
268.00 0.00003
268.50 0.00002
269.00 0.00002
269.50 0.00002
270.00 0.00002
270.00 0.00002
270.50 0.00002
271.00 0.00002
271.50 0.00002
272.00 0.00003
272.50 0.00003
273.00 0.00003
273.50 0.00004
274.00 0.00005
274.50 0.00005
275.00 0.00006
275.50 0.00006
276.00 0.00007
276.50 0.00007
277.00 0.00008
277.50 0.00008
278.00 0.00009
278.50 0.00009
279.00 0.00010
279.50 0.00010
280.00 0.00011
280.50 0.00011
281.00 0.00012
281.50 0.00012
282.00 0.00013
282.50 0.00013
283.00 0.00014
283.50 0.00014
284.00 0.00015
284.50 0.00015
285.00 0.00016
285.50 0.00016
286.00 0.00017
286.50 0.00017
287.00 0.00018
287.50 0.00018
288.00 0.00019
288.50 0.00020
289.00 0.00020
289.50 0.00021
290.00 0.00021
290.50 0.00022
291.00 0.00022
291.50 0.00023
292.00 0.00023
292.50 0.00024
293.00 0.00025
293.50 0.00025
294.00 0.00026
294.50 0.00027
295.00 0.00027
295.50 0.00028
296.00 0.00029
296.50 0.00030
297.00 0.00030
297.50 0.00031
298.00 0.00032
298.50 0.00034
299.00 0.00036
299.50 0.00037
300.00 0.00039
300.50 0.00040
301.00 0.00042
301.50 0.00043
302.00 0.00046
302.50 0.00050
303.00 0.00053
303.50 0.00056
304.00 0.00060
304.50 0.00063
305.00 0.00067
305.50 0.00070
306.00 0.00078
306.50 0.00086
307.00 0.00095
307.50 0.00103
308.00 0.00112
308.50 0.00121
309.00 0.00132
309.50 0.00145
310.00 0.00161
310.50 0.00180
311.00 0.00200
311.50 0.00220
312.00 0.00239
312.50 0.00259
313.00 0.00294
313.50 0.00329
314.00 0.00363
314.50 0.00398
315.00 0.00433
315.50 0.00490
316.00 0.00546
316.50 0.00603
317.00 0.00660
317.50 0.00734
318.00 0.00828
318.50 0.00922
319.00 0.01016
319.50 0.01110
320.00 0.01232
320.50 0.01360
321.00 0.01543
321.50 0.01740
322.00 0.01938
322.50 0.02136
323.00 0.02359
323.50 0.02618
324.00 0.02876
324.50 0.03134
325.00 0.03576
325.50 0.04080
326.00 0.04585
326.50 0.05090
327.00 0.05600
327.50 0.06126
328.00 0.06653
328.50 0.07273
329.00 0.08221
329.50 0.09169
330.00 0.10352
330.50 0.11549
331.00 0.12747
331.50 0.13946
332.00 0.15298
332.50 0.16903
333.00 0.19149
333.50 0.21394
334.00 0.23637
334.50 0.25877
335.00 0.28114
335.50 0.30349
336.00 0.33474
336.50 0.36721
337.00 0.39929
337.50 0.43126
338.00 0.46676
338.50 0.50838
339.00 0.54619
339.50 0.58113
340.00 0.61589
340.50 0.65046
341.00 0.68550
341.50 0.72316
342.00 0.76062
342.50 0.79785
343.00 0.83486
343.50 0.86908
344.00 0.90123
344.50 0.93146
345.00 0.96147
345.50 0.99124
346.00 1.02043
346.50 1.04949
347.00 1.07838
347.50 1.10710
348.00 1.13292
348.50 1.15563
349.00 1.17773
349.50 1.19959
350.00 1.22128
350.50 1.24186
351.00 1.25859
351.50 1.27781
352.00 1.29692
352.50 1.31566
353.00 1.32902
353.50 1.34226
354.00 1.35491
354.50 1.36746
355.00 1.37770
355.50 1.38723
356.00 1.39476
356.50 1.40218
357.00 1.40950
357.50 1.41429
358.00 1.41901
358.50 1.42366
359.00 1.42586
359.50 1.42698
360.00 1.42858
