phi[deg] B[T]
0.00 1.16371
0.50 1.16330
1.00 1.16296
1.50 1.16285
2.00 1.16298
2.50 1.16258
3.00 1.16202
3.50 1.16151
4.00 1.16107
4.50 1.16070
5.00 1.16038
5.50 1.15972
6.00 1.15863
6.50 1.15762
7.00 1.15668
7.50 1.15581
8.00 1.15508
8.50 1.15449
9.00 1.15310
9.50 1.15169
10.00 1.15011
10.50 1.14859
11.00 1.14713
11.50 1.14573
12.00 1.14421
12.50 1.14274
13.00 1.14031
13.50 1.13795
14.00 1.13565
14.50 1.13342
15.00 1.13154
15.50 1.12875
16.00 1.12600
16.50 1.12330
17.00 1.12065
17.50 1.11804
18.00 1.11584
18.50 1.11390
19.00 1.11070
19.50 1.10629
20.00 1.10190
20.50 1.09754
21.00 1.09320
21.50 1.08889
22.00 1.08461
22.50 1.08201
23.00 1.07988
23.50 1.07464
24.00 1.06780
24.50 1.06093
25.00 1.05403
25.50 1.04711
26.00 1.04016
26.50 1.03336
27.00 1.03096
27.50 1.02823
28.00 1.01908
28.50 1.00643
29.00 0.99364
29.50 0.98072
30.00 0.96766
30.50 0.95447
31.00 0.94153
31.50 0.93589
32.00 0.92309
32.50 0.90200
33.00 0.87894
33.50 0.85563
34.00 0.83207
34.50 0.80826
35.00 0.78421
35.50 0.76013
36.00 0.73623
36.50 0.71094
37.00 0.67362
37.50 0.63605
38.00 0.59823
38.50 0.56489
39.00 0.53399
39.50 0.50190
40.00 0.46731
40.50 0.43259
41.00 0.39774
41.50 0.36470
42.00 0.33664
42.50 0.30807
43.00 0.27943
43.50 0.25466
44.00 0.23219
44.50 0.20969
45.00 0.18783
45.50 0.17214
46.00 0.15603
46.50 0.13992
47.00 0.12525
47.50 0.11345
48.00 0.10175
48.50 0.09183
49.00 0.08314
49.50 0.07461
50.00 0.06712
50.50 0.06175
51.00 0.05638
51.50 0.05101
52.00 0.04567
52.50 0.04053
53.00 0.03540
53.50 0.03245
54.00 0.02971
54.50 0.02730
55.00 0.02491
55.50 0.02252
56.00 0.02013
56.50 0.01774
57.00 0.01536
57.50 0.01398
58.00 0.01262
58.50 0.01126
59.00 0.01028
59.50 0.00944
60.00 0.00859
60.50 0.00775
61.00 0.00691
61.50 0.00615
62.00 0.00547
62.50 0.00481
63.00 0.00446
63.50 0.00411
64.00 0.00376
64.50 0.00341
65.00 0.00305
65.50 0.00270
66.00 0.00236
66.50 0.00220
67.00 0.00203
67.50 0.00186
68.00 0.00170
68.50 0.00153
69.00 0.00137
69.50 0.00120
70.00 0.00109
70.50 0.00102
71.00 0.00095
71.50 0.00087
72.00 0.00080
72.50 0.00072
73.00 0.00065
73.50 0.00057
74.00 0.00054
74.50 0.00050
75.00 0.00046
75.50 0.00043
76.00 0.00039
76.50 0.00036
77.00 0.00033
77.50 0.00031
78.00 0.00029
78.50 0.00027
79.00 0.00025
79.50 0.00024
80.00 0.00022
80.50 0.00020
81.00 0.00019
81.50 0.00018
82.00 0.00016
82.50 0.00015
83.00 0.00014
83.50 0.00013
84.00 0.00012
84.50 0.00011
85.00 0.00010
85.50 0.00009
86.00 0.00008
86.50 0.00007
87.00 0.00007
87.50 0.00006
88.00 0.00005
88.50 0.00005
89.00 0.00004
89.50 0.00004
90.00 0.00004
90.00 0.00004
90.50 0.00004
91.00 0.00004
91.50 0.00005
92.00 0.00005
92.50 0.00006
93.00 0.00007
93.50 0.00007
94.00 0.00008
94.50 0.00009
95.00 0.00010
95.50 0.00011
96.00 0.00012
96.50 0.00013
97.00 0.00014
97.50 0.00015
98.00 0.00016
98.50 0.00018
99.00 0.00019
99.50 0.00020
100.00 0.00022
100.50 0.00024
101.00 0.00025
101.50 0.00027
102.00 0.00029
102.50 0.00031
103.00 0.00033
103.50 0.00036
104.00 0.00039
104.50 0.00043
105.00 0.00046
105.50 0.00050
106.00 0.00054
106.50 0.00057
107.00 0.00065
107.50 0.00072
108.00 0.00080
108.50 0.00087
109.00 0.00095
109.50 0.00102
110.00 0.00109
110.50 0.00120
111.00 0.00137
111.50 0.00153
112.00 0.00170
112.50 0.00186
113.00 0.00203
113.50 0.00220
114.00 0.00236
114.50 0.00270
115.00 0.00305
115.50 0.00341
116.00 0.00376
116.50 0.00411
117.00 0.00446
117.50 0.00481
118.00 0.00547
118.50 0.00615
119.00 0.00691
119.50 0.00775
120.00 0.00859
120.50 0.00944
121.00 0.01028
121.50 0.01126
122.00 0.01262
122.50 0.01398
123.00 0.01536
123.50 0.01774
124.00 0.02013
124.50 0.02252
125.00 0.02491
125.50 0.02730
126.00 0.02971
126.50 0.03245
127.00 0.03540
127.50 0.04053
128.00 0.04567
128.50 0.05101
129.00 0.05638
129.50 0.06175
130.00 0.06712
130.50 0.07461
131.00 0.08314
131.50 0.09183
132.00 0.10175
132.50 0.11345
133.00 0.12525
133.50 0.13992
134.00 0.15603
134.50 0.17214
135.00 0.18783
135.50 0.20969
136.00 0.23219
136.50 0.25466
137.00 0.27943
137.50 0.30807
138.00 0.33664
138.50 0.36470
139.00 0.39774
139.50 0.43259
140.00 0.46731
140.50 0.50190
141.00 0.53399
141.50 0.56489
142.00 0.59823
142.50 0.63605
143.00 0.67362
143.50 0.71094
144.00 0.73623
144.50 0.76013
145.00 0.78421
145.50 0.80826
146.00 0.83207
146.50 0.85563
147.00 0.87894
147.50 0.90200
148.00 0.92309
148.50 0.93589
149.00 0.94153
149.50 0.95447
150.00 0.96766
150.50 0.98072
151.00 0.99364
151.50 1.00643
152.00 1.01908
152.50 1.02823
153.00 1.03096
153.50 1.03336
154.00 1.04016
154.50 1.04711
155.00 1.05403
155.50 1.06093
156.00 1.06780
156.50 1.07464
157.00 1.07988
157.50 1.08201
158.00 1.08461
158.50 1.08889
159.00 1.09320
159.50 1.09754
160.00 1.10190
160.50 1.10629
161.00 1.11070
161.50 1.11390
162.00 1.11584
162.50 1.11804
163.00 1.12065
163.50 1.12330
164.00 1.12600
164.50 1.12875
165.00 1.13154
165.50 1.13342
166.00 1.13565
166.50 1.13795
167.00 1.14031
167.50 1.14274
168.00 1.14421
168.50 1.14573
169.00 1.14713
169.50 1.14859
170.00 1.15011
170.50 1.15169
171.00 1.15310
171.50 1.15449
172.00 1.15508
172.50 1.15581
173.00 1.15668
173.50 1.15762
174.00 1.15863
174.50 1.15972
175.00 1.16038
175.50 1.16070
176.00 1.16107
176.50 1.16151
177.00 1.16202
177.50 1.16258
178.00 1.16298
178.50 1.16285
179.00 1.16296
179.50 1.16330
180.00 1.16371
180.00 1.16371
180.50 1.16330
181.00 1.16296
181.50 1.16285
182.00 1.16298
182.50 1.16258
183.00 1.16202
183.50 1.16151
184.00 1.16107
184.50 1.16070
185.00 1.16038
185.50 1.15972
186.00 1.15863
186.50 1.15762
187.00 1.15668
187.50 1.15581
188.00 1.15508
188.50 1.15449
189.00 1.15310
189.50 1.15169
190.00 1.15011
190.50 1.14859
191.00 1.14713
191.50 1.14573
192.00 1.14421
192.50 1.14274
193.00 1.14031
193.50 1.13795
194.00 1.13565
194.50 1.13342
195.00 1.13154
195.50 1.12875
196.00 1.12600
196.50 1.12330
197.00 1.12065
197.50 1.11804
198.00 1.11584
198.50 1.11390
199.00 1.11070
199.50 1.10629
200.00 1.10190
200.50 1.09754
201.00 1.09320
201.50 1.08889
202.00 1.08461
202.50 1.08201
203.00 1.07988
203.50 1.07464
204.00 1.06780
204.50 1.06093
205.00 1.05403
205.50 1.04711
206.00 1.04016
206.50 1.03336
207.00 1.03096
207.50 1.02823
208.00 1.01908
208.50 1.00643
209.00 0.99364
209.50 0.98072
210.00 0.96766
210.50 0.95447
211.00 0.94153
211.50 0.93589
212.00 0.92309
212.50 0.90200
213.00 0.87894
213.50 0.85563
214.00 0.83207
214.50 0.80826
215.00 0.78421
215.50 0.76013
216.00 0.73623
216.50 0.71094
217.00 0.67362
217.50 0.63605
218.00 0.59823
218.50 0.56489
219.00 0.53399
219.50 0.50190
220.00 0.46731
220.50 0.43259
221.00 0.39774
221.50 0.36470
222.00 0.33664
222.50 0.30807
223.00 0.27943
223.50 0.25466
224.00 0.23219
224.50 0.20969
225.00 0.18783
225.50 0.17214
226.00 0.15603
226.50 0.13992
227.00 0.12525
227.50 0.11345
228.00 0.10175
228.50 0.09183
229.00 0.08314
229.50 0.07461
230.00 0.06712
230.50 0.06175
231.00 0.05638
231.50 0.05101
232.00 0.04567
232.50 0.04053
233.00 0.03540
233.50 0.03245
234.00 0.02971
234.50 0.02730
235.00 0.02491
235.50 0.02252
236.00 0.02013
236.50 0.01774
237.00 0.01536
237.50 0.01398
238.00 0.01262
238.50 0.01126
239.00 0.01028
239.50 0.00944
240.00 0.00859
240.50 0.00775
241.00 0.00691
241.50 0.00615
242.00 0.00547
242.50 0.00481
243.00 0.00446
243.50 0.00411
244.00 0.00376
244.50 0.00341
245.00 0.00305
245.50 0.00270
246.00 0.00236
246.50 0.00220
247.00 0.00203
247.50 0.00186
248.00 0.00170
248.50 0.00153
249.00 0.00137
249.50 0.00120
250.00 0.00109
250.50 0.00102
251.00 0.00095
251.50 0.00087
252.00 0.00080
252.50 0.00072
253.00 0.00065
253.50 0.00057
254.00 0.00054
254.50 0.00050
255.00 0.00046
255.50 0.00043
256.00 0.00039
256.50 0.00036
257.00 0.00033
257.50 0.00031
258.00 0.00029
258.50 0.00027
259.00 0.00025
259.50 0.00024
260.00 0.00022
260.50 0.00020
261.00 0.00019
261.50 0.00018
262.00 0.00016
262.50 0.00015
263.00 0.00014
263.50 0.00013
264.00 0.00012
264.50 0.00011
265.00 0.00010
265.50 0.00009
266.00 0.00008
266.50 0.00007
267.00 0.00007
267.50 0.00006
268.00 0.00005
268.50 0.00005
269.00 0.00004
269.50 0.00004
270.00 0.00004
270.00 0.00004
270.50 0.00004
271.00 0.00004
271.50 0.00005
272.00 0.00005
272.50 0.00006
273.00 0.00007
273.50 0.00007
274.00 0.00008
274.50 0.00009
275.00 0.00010
275.50 0.00011
276.00 0.00012
276.50 0.00013
277.00 0.00014
277.50 0.00015
278.00 0.00016
278.50 0.00018
279.00 0.00019
279.50 0.00020
280.00 0.00022
280.50 0.00024
281.00 0.00025
281.50 0.00027
282.00 0.00029
282.50 0.00031
283.00 0.00033
283.50 0.00036
284.00 0.00039
284.50 0.00043
285.00 0.00046
285.50 0.00050
286.00 0.00054
286.50 0.00057
287.00 0.00065
287.50 0.00072
288.00 0.00080
288.50 0.00087
289.00 0.00095
289.50 0.00102
290.00 0.00109
290.50 0.00120
291.00 0.00137
291.50 0.00153
292.00 0.00170
292.50 0.00186
293.00 0.00203
293.50 0.00220
294.00 0.00236
294.50 0.00270
295.00 0.00305
295.50 0.00341
296.00 0.00376
296.50 0.00411
297.00 0.00446
297.50 0.00481
298.00 0.00547
298.50 0.00615
299.00 0.00691
299.50 0.00775
300.00 0.00859
300.50 0.00944
301.00 0.01028
301.50 0.01126
302.00 0.01262
302.50 0.01398
303.00 0.01536
303.50 0.01774
304.00 0.02013
304.50 0.02252
305.00 0.02491
305.50 0.02730
306.00 0.02971
306.50 0.03245
307.00 0.03540
307.50 0.04053
308.00 0.04567
308.50 0.05101
309.00 0.05638
309.50 0.06175
310.00 0.06712
310.50 0.07461
311.00 0.08314
311.50 0.09183
312.00 0.10175
312.50 0.11345
313.00 0.12525
313.50 0.13992
314.00 0.15603
314.50 0.17214
315.00 0.18783
315.50 0.20969
316.00 0.23219
316.50 0.25466
317.00 0.27943
317.50 0.30807
318.00 0.33664
318.50 0.36470
319.00 0.39774
319.50 0.43259
320.00 0.46731
320.50 0.50190
321.00 0.53399
321.50 0.56489
322.00 0.59823
322.50 0.63605
323.00 0.67362
323.50 0.71094
324.00 0.73623
324.50 0.76013
325.00 0.78421
325.50 0.80826
326.00 0.83207
326.50 0.85563
327.00 0.87894
327.50 0.90200
328.00 0.92309
328.50 0.93589
329.00 0.94153
329.50 0.95447
330.00 0.96766
330.50 0.98072
331.00 0.99364
331.50 1.00643
332.00 1.01908
332.50 1.02823
333.00 1.03096
333.50 1.03336
334.00 1.04016
334.50 1.04711
335.00 1.05403
335.50 1.06093
336.00 1.06780
336.50 1.07464
337.00 1.07988
337.50 1.08201
338.00 1.08461
338.50 1.08889
339.00 1.09320
339.50 1.09754
340.00 1.10190
340.50 1.10629
341.00 1.11070
341.50 1.11390
342.00 1.11584
342.50 1.11804
343.00 1.12065
343.50 1.12330
344.00 1.12600
344.50 1.12875
345.00 1.13154
345.50 1.13342
346.00 1.13565
346.50 1.13795
347.00 1.14031
347.50 1.14274
348.00 1.14421
348.50 1.14573
349.00 1.14713
349.50 1.14859
350.00 1.15011
350.50 1.15169
351.00 1.15310
351.50 1.15449
352.00 1.15508
352.50 1.15581
353.00 1.15668
353.50 1.15762
354.00 1.15863
354.50 1.15972
355.00 1.16038
355.50 1.16070
356.00 1.16107
356.50 1.16151
357.00 1.16202
357.50 1.16258
358.00 1.16298
358.50 1.16285
359.00 1.16296
359.50 1.16330
360.00 1.16371
