phi[deg] B[T]
0.00 1.14194
0.50 1.14143
1.00 1.14099
1.50 1.14063
2.00 1.14074
2.50 1.14048
3.00 1.13998
3.50 1.13955
4.00 1.13920
4.50 1.13891
5.00 1.13831
5.50 1.13754
6.00 1.13638
6.50 1.13530
7.00 1.13429
7.50 1.13335
8.00 1.13273
8.50 1.13192
9.00 1.13058
9.50 1.12872
10.00 1.12693
10.50 1.12520
11.00 1.12353
11.50 1.12194
12.00 1.12040
12.50 1.11893
13.00 1.11775
13.50 1.11599
14.00 1.11338
14.50 1.11073
15.00 1.10813
15.50 1.10559
16.00 1.10310
16.50 1.10066
17.00 1.09829
17.50 1.09614
18.00 1.09404
18.50 1.09126
19.00 1.08713
19.50 1.08304
20.00 1.07898
20.50 1.07496
21.00 1.07098
21.50 1.06704
22.00 1.06313
22.50 1.06069
23.00 1.05826
23.50 1.05572
24.00 1.05109
24.50 1.04487
25.00 1.03863
25.50 1.03239
26.00 1.02613
26.50 1.01986
27.00 1.01434
27.50 1.01177
28.00 1.00918
28.50 1.00248
29.00 0.99149
29.50 0.98044
30.00 0.96931
30.50 0.95812
31.00 0.94863
31.50 0.94420
32.00 0.93663
32.50 0.92252
33.00 0.90827
33.50 0.89176
34.00 0.87486
34.50 0.85692
35.00 0.83845
35.50 0.81983
36.00 0.79749
36.50 0.77175
37.00 0.74789
37.50 0.72395
38.00 0.69982
38.50 0.67176
39.00 0.63876
39.50 0.60556
40.00 0.57300
40.50 0.53986
41.00 0.50745
41.50 0.47541
42.00 0.44448
42.50 0.41320
43.00 0.38181
43.50 0.35104
44.00 0.32320
44.50 0.29527
45.00 0.26686
45.50 0.24436
46.00 0.22275
46.50 0.20112
47.00 0.18210
47.50 0.16327
48.00 0.14905
48.50 0.13534
49.00 0.12163
49.50 0.10886
50.00 0.09852
50.50 0.08896
51.00 0.08137
51.50 0.07379
52.00 0.06624
52.50 0.05887
53.00 0.05155
53.50 0.04685
54.00 0.04306
54.50 0.03969
55.00 0.03633
55.50 0.03289
56.00 0.02941
56.50 0.02594
57.00 0.02247
57.50 0.02025
58.00 0.01864
58.50 0.01702
59.00 0.01540
59.50 0.01378
60.00 0.01230
60.50 0.01091
61.00 0.00970
61.50 0.00895
62.00 0.00820
62.50 0.00745
63.00 0.00670
63.50 0.00595
64.00 0.00524
64.50 0.00476
65.00 0.00442
65.50 0.00407
66.00 0.00372
66.50 0.00337
67.00 0.00302
67.50 0.00266
68.00 0.00232
68.50 0.00214
69.00 0.00198
69.50 0.00183
70.00 0.00168
70.50 0.00152
71.00 0.00137
71.50 0.00121
72.00 0.00106
72.50 0.00096
73.00 0.00090
73.50 0.00083
74.00 0.00077
74.50 0.00070
75.00 0.00063
75.50 0.00057
76.00 0.00050
76.50 0.00047
77.00 0.00044
77.50 0.00041
78.00 0.00037
78.50 0.00034
79.00 0.00031
79.50 0.00028
80.00 0.00026
80.50 0.00025
81.00 0.00023
81.50 0.00021
82.00 0.00020
82.50 0.00018
83.00 0.00017
83.50 0.00015
84.00 0.00014
84.50 0.00013
85.00 0.00012
85.50 0.00011
86.00 0.00010
86.50 0.00009
87.00 0.00008
87.50 0.00008
88.00 0.00007
88.50 0.00007
89.00 0.00006
89.50 0.00006
90.00 0.00006
90.00 0.00006
90.50 0.00006
91.00 0.00006
91.50 0.00007
92.00 0.00007
92.50 0.00008
93.00 0.00008
93.50 0.00009
94.00 0.00010
94.50 0.00011
95.00 0.00012
95.50 0.00013
96.00 0.00014
96.50 0.00015
97.00 0.00017
97.50 0.00018
98.00 0.00020
98.50 0.00021
99.00 0.00023
99.50 0.00025
100.00 0.00026
100.50 0.00028
101.00 0.00031
101.50 0.00034
102.00 0.00037
102.50 0.00041
103.00 0.00044
103.50 0.00047
104.00 0.00050
104.50 0.00057
105.00 0.00063
105.50 0.00070
106.00 0.00077
106.50 0.00083
107.00 0.00090
107.50 0.00096
108.00 0.00106
108.50 0.00121
109.00 0.00137
109.50 0.00152
110.00 0.00168
110.50 0.00183
111.00 0.00198
111.50 0.00214
112.00 0.00232
112.50 0.00266
113.00 0.00302
113.50 0.00337
114.00 0.00372
114.50 0.00407
115.00 0.00442
115.50 0.00476
116.00 0.00524
116.50 0.00595
117.00 0.00670
117.50 0.00745
118.00 0.00820
118.50 0.00895
119.00 0.00970
119.50 0.01091
120.00 0.01230
120.50 0.01378
121.00 0.01540
121.50 0.01702
122.00 0.01864
122.50 0.02025
123.00 0.02247
123.50 0.02594
124.00 0.02941
124.50 0.03289
125.00 0.03633
125.50 0.03969
126.00 0.04306
126.50 0.04685
127.00 0.05155
127.50 0.05887
128.00 0.06624
128.50 0.07379
129.00 0.08137
129.50 0.08896
130.00 0.09852
130.50 0.10886
131.00 0.12163
131.50 0.13534
132.00 0.14905
132.50 0.16327
133.00 0.18210
133.50 0.20112
134.00 0.22275
134.50 0.24436
135.00 0.26686
135.50 0.29527
136.00 0.32320
136.50 0.35104
137.00 0.38181
137.50 0.41320
138.00 0.44448
138.50 0.47541
139.00 0.50745
139.50 0.53986
140.00 0.57300
140.50 0.60556
141.00 0.63876
141.50 0.67176
142.00 0.69982
142.50 0.72395
143.00 0.74789
143.50 0.77175
144.00 0.79749
144.50 0.81983
145.00 0.83845
145.50 0.85692
146.00 0.87486
146.50 0.89176
147.00 0.90827
147.50 0.92252
148.00 0.93663
148.50 0.94420
149.00 0.94863
149.50 0.95812
150.00 0.96931
150.50 0.98044
151.00 0.99149
151.50 1.00248
152.00 1.00918
152.50 1.01177
153.00 1.01434
153.50 1.01986
154.00 1.02613
154.50 1.03239
155.00 1.03863
155.50 1.04487
156.00 1.05109
156.50 1.05572
157.00 1.05826
157.50 1.06069
158.00 1.06313
158.50 1.06704
159.00 1.07098
159.50 1.07496
160.00 1.07898
160.50 1.08304
161.00 1.08713
161.50 1.09126
162.00 1.09404
162.50 1.09614
163.00 1.09829
163.50 1.10066
164.00 1.10310
164.50 1.10559
165.00 1.10813
165.50 1.11073
166.00 1.11338
166.50 1.11599
167.00 1.11775
167.50 1.11893
168.00 1.12040
168.50 1.12194
169.00 1.12353
169.50 1.12520
170.00 1.12693
170.50 1.12872
171.00 1.13058
171.50 1.13192
172.00 1.13273
172.50 1.13335
173.00 1.13429
173.50 1.13530
174.00 1.13638
174.50 1.13754
175.00 1.13831
175.50 1.13891
176.00 1.13920
176.50 1.13955
177.00 1.13998
177.50 1.14048
178.00 1.14074
178.50 1.14063
179.00 1.14099
179.50 1.14143
180.00 1.14194
180.00 1.14194
180.50 1.14143
181.00 1.14099
181.50 1.14063
182.00 1.14074
182.50 1.14048
183.00 1.13998
183.50 1.13955
184.00 1.13920
184.50 1.13891
185.00 1.13831
185.50 1.13754
186.00 1.13638
186.50 1.13530
187.00 1.13429
187.50 1.13335
188.00 1.13273
188.50 1.13192
189.00 1.13058
189.50 1.12872
190.00 1.12693
190.50 1.12520
191.00 1.12353
191.50 1.12194
192.00 1.12040
192.50 1.11893
193.00 1.11775
193.50 1.11599
194.00 1.11338
194.50 1.11073
195.00 1.10813
195.50 1.10559
196.00 1.10310
196.50 1.10066
197.00 1.09829
197.50 1.09614
198.00 1.09404
198.50 1.09126
199.00 1.08713
199.50 1.08304
200.00 1.07898
200.50 1.07496
201.00 1.07098
201.50 1.06704
202.00 1.06313
202.50 1.06069
203.00 1.05826
203.50 1.05572
204.00 1.05109
204.50 1.04487
205.00 1.03863
205.50 1.03239
206.00 1.02613
206.50 1.01986
207.00 1.01434
207.50 1.01177
208.00 1.00918
208.50 1.00248
209.00 0.99149
209.50 0.98044
210.00 0.96931
210.50 0.95812
211.00 0.94863
211.50 0.94420
212.00 0.93663
212.50 0.92252
213.00 0.90827
213.50 0.89176
214.00 0.87486
214.50 0.85692
215.00 0.83845
215.50 0.81983
216.00 0.79749
216.50 0.77175
217.00 0.74789
217.50 0.72395
218.00 0.69982
218.50 0.67176
219.00 0.63876
219.50 0.60556
220.00 0.57300
220.50 0.53986
221.00 0.50745
221.50 0.47541
222.00 0.44448
222.50 0.41320
223.00 0.38181
223.50 0.35104
224.00 0.32320
224.50 0.29527
225.00 0.26686
225.50 0.24436
226.00 0.22275
226.50 0.20112
227.00 0.18210
227.50 0.16327
228.00 0.14905
228.50 0.13534
229.00 0.12163
229.50 0.10886
230.00 0.09852
230.50 0.08896
231.00 0.08137
231.50 0.07379
232.00 0.06624
232.50 0.05887
233.00 0.05155
233.50 0.04685
234.00 0.04306
234.50 0.03969
235.00 0.03633
235.50 0.03289
236.00 0.02941
236.50 0.02594
237.00 0.02247
237.50 0.02025
238.00 0.01864
238.50 0.01702
239.00 0.01540
239.50 0.01378
240.00 0.01230
240.50 0.01091
241.00 0.00970
241.50 0.00895
242.00 0.00820
242.50 0.00745
243.00 0.00670
243.50 0.00595
244.00 0.00524
244.50 0.00476
245.00 0.00442
245.50 0.00407
246.00 0.00372
246.50 0.00337
247.00 0.00302
247.50 0.00266
248.00 0.00232
248.50 0.00214
249.00 0.00198
249.50 0.00183
250.00 0.00168
250.50 0.00152
251.00 0.00137
251.50 0.00121
252.00 0.00106
252.50 0.00096
253.00 0.00090
253.50 0.00083
254.00 0.00077
254.50 0.00070
255.00 0.00063
255.50 0.00057
256.00 0.00050
256.50 0.00047
257.00 0.00044
257.50 0.00041
258.00 0.00037
258.50 0.00034
259.00 0.00031
259.50 0.00028
260.00 0.00026
260.50 0.00025
261.00 0.00023
261.50 0.00021
262.00 0.00020
262.50 0.00018
263.00 0.00017
263.50 0.00015
264.00 0.00014
264.50 0.00013
265.00 0.00012
265.50 0.00011
266.00 0.00010
266.50 0.00009
267.00 0.00008
267.50 0.00008
268.00 0.00007
268.50 0.00007
269.00 0.00006
269.50 0.00006
270.00 0.00006
270.00 0.00006
270.50 0.00006
271.00 0.00006
271.50 0.00007
272.00 0.00007
272.50 0.00008
273.00 0.00008
273.50 0.00009
274.00 0.00010
274.50 0.00011
275.00 0.00012
275.50 0.00013
276.00 0.00014
276.50 0.00015
277.00 0.00017
277.50 0.00018
278.00 0.00020
278.50 0.00021
279.00 0.00023
279.50 0.00025
280.00 0.00026
280.50 0.00028
281.00 0.00031
281.50 0.00034
282.00 0.00037
282.50 0.00041
283.00 0.00044
283.50 0.00047
284.00 0.00050
284.50 0.00057
285.00 0.00063
285.50 0.00070
286.00 0.00077
286.50 0.00083
287.00 0.00090
287.50 0.00096
288.00 0.00106
288.50 0.00121
289.00 0.00137
289.50 0.00152
290.00 0.00168
290.50 0.00183
291.00 0.00198
291.50 0.00214
292.00 0.00232
292.50 0.00266
293.00 0.00302
293.50 0.00337
294.00 0.00372
294.50 0.00407
295.00 0.00442
295.50 0.00476
296.00 0.00524
296.50 0.00595
297.00 0.00670
297.50 0.00745
298.00 0.00820
298.50 0.00895
299.00 0.00970
299.50 0.01091
300.00 0.01230
300.50 0.01378
301.00 0.01540
301.50 0.01702
302.00 0.01864
302.50 0.02025
303.00 0.02247
303.50 0.02594
304.00 0.02941
304.50 0.03289
305.00 0.03633
305.50 0.03969
306.00 0.04306
306.50 0.04685
307.00 0.05155
307.50 0.05887
308.00 0.06624
308.50 0.07379
309.00 0.08137
309.50 0.08896
310.00 0.09852
310.50 0.10886
311.00 0.12163
311.50 0.13534
312.00 0.14905
312.50 0.16327
313.00 0.18210
313.50 0.20112
314.00 0.22275
314.50 0.24436
315.00 0.26686
315.50 0.29527
316.00 0.32320
316.50 0.35104
317.00 0.38181
317.50 0.41320
318.00 0.44448
318.50 0.47541
319.00 0.50745
319.50 0.53986
320.00 0.57300
320.50 0.60556
321.00 0.63876
321.50 0.67176
322.00 0.69982
322.50 0.72395
323.00 0.74789
323.50 0.77175
324.00 0.79749
324.50 0.81983
325.00 0.83845
325.50 0.85692
326.00 0.87486
326.50 0.89176
327.00 0.90827
327.50 0.92252
328.00 0.93663
328.50 0.94420
329.00 0.94863
329.50 0.95812
330.00 0.96931
330.50 0.98044
331.00 0.99149
331.50 1.00248
332.00 1.00918
332.50 1.01177
333.00 1.01434
333.50 1.01986
334.00 1.02613
334.50 1.03239
335.00 1.03863
335.50 1.04487
336.00 1.05109
336.50 1.05572
337.00 1.05826
337.50 1.06069
338.00 1.06313
338.50 1.06704
339.00 1.07098
339.50 1.07496
340.00 1.07898
340.50 1.08304
341.00 1.08713
341.50 1.09126
342.00 1.09404
342.50 1.09614
343.00 1.09829
343.50 1.10066
344.00 1.10310
344.50 1.10559
345.00 1.10813
345.50 1.11073
346.00 1.11338
346.50 1.11599
347.00 1.11775
347.50 1.11893
348.00 1.12040
348.50 1.12194
349.00 1.12353
349.50 1.12520
350.00 1.12693
350.50 1.12872
351.00 1.13058
351.50 1.13192
352.00 1.13273
352.50 1.13335
353.00 1.13429
353.50 1.13530
354.00 1.13638
354.50 1.13754
355.00 1.13831
355.50 1.13891
356.00 1.13920
356.50 1.13955
357.00 1.13998
357.50 1.14048
358.00 1.14074
358.50 1.14063
359.00 1.14099
359.50 1.14143
360.00 1.14194
