phi[deg] B[T]
0.00 1.41876
0.50 1.41805
1.00 1.41743
1.50 1.41696
2.00 1.41616
2.50 1.41562
3.00 1.41518
3.50 1.41423
4.00 1.41344
4.50 1.41340
5.00 1.41348
5.50 1.41381
6.00 1.41426
6.50 1.41487
7.00 1.41569
7.50 1.41667
8.00 1.41855
8.50 1.42054
9.00 1.42253
9.50 1.42383
10.00 1.42525
10.50 1.42713
11.00 1.42923
11.50 1.43143
12.00 1.43244
12.50 1.43328
13.00 1.43380
13.50 1.43386
14.00 1.43402
14.50 1.43413
15.00 1.43416
15.50 1.43429
16.00 1.43449
16.50 1.43476
17.00 1.43552
17.50 1.43670
18.00 1.43725
18.50 1.43733
19.00 1.43749
19.50 1.43858
20.00 1.44031
20.50 1.44213
21.00 1.44143
21.50 1.43940
22.00 1.43753
22.50 1.43610
23.00 1.43472
23.50 1.43150
24.00 1.42483
24.50 1.41818
25.00 1.40875
25.50 1.39825
26.00 1.38780
26.50 1.37660
27.00 1.36538
27.50 1.35376
28.00 1.34117
28.50 1.32863
29.00 1.31561
29.50 1.30211
30.00 1.28867
30.50 1.27657
31.00 1.26482
31.50 1.25301
32.00 1.23743
32.50 1.22189
33.00 1.20638
33.50 1.19338
34.00 1.18097
34.50 1.16505
35.00 1.14629
35.50 1.12687
36.00 1.10743
36.50 1.08770
37.00 1.06460
37.50 1.04148
38.00 1.01709
38.50 0.99254
39.00 0.96798
39.50 0.94333
40.00 0.91854
40.50 0.89262
41.00 0.86723
41.50 0.84191
42.00 0.81678
42.50 0.79189
43.00 0.76699
43.50 0.74245
44.00 0.71809
44.50 0.69416
45.00 0.67011
45.50 0.64706
46.00 0.62472
46.50 0.60414
47.00 0.58371
47.50 0.56625
48.00 0.54933
48.50 0.53402
49.00 0.52085
49.50 0.50800
50.00 0.50045
50.50 0.49337
51.00 0.48251
51.50 0.47166
52.00 0.46082
52.50 0.45408
53.00 0.45003
53.50 0.44380
54.00 0.43191
54.50 0.41871
55.00 0.40538
55.50 0.39194
56.00 0.37876
56.50 0.36547
57.00 0.34877
57.50 0.32971
58.00 0.30923
58.50 0.28489
59.00 0.26041
59.50 0.23579
60.00 0.21496
60.50 0.19526
61.00 0.17479
61.50 0.15415
62.00 0.13346
62.50 0.11380
63.00 0.10174
63.50 0.08963
64.00 0.07604
64.50 0.06243
65.00 0.05463
65.50 0.04827
66.00 0.04190
66.50 0.03553
67.00 0.02906
67.50 0.02555
68.00 0.02304
68.50 0.02053
69.00 0.01802
69.50 0.01552
70.00 0.01302
70.50 0.01052
71.00 0.00881
71.50 0.00793
72.00 0.00704
72.50 0.00616
73.00 0.00527
73.50 0.00453
74.00 0.00408
74.50 0.00363
75.00 0.00324
75.50 0.00292
76.00 0.00267
76.50 0.00242
77.00 0.00218
77.50 0.00202
78.00 0.00189
78.50 0.00175
79.00 0.00160
79.50 0.00150
80.00 0.00141
80.50 0.00131
81.00 0.00124
81.50 0.00117
82.00 0.00110
82.50 0.00104
83.00 0.00098
83.50 0.00093
84.00 0.00088
84.50 0.00084
85.00 0.00079
85.50 0.00075
86.00 0.00072
86.50 0.00068
87.00 0.00065
87.50 0.00062
88.00 0.00060
88.50 0.00058
89.00 0.00057
89.50 0.00056
90.00 0.00056
90.00 0.00056
90.50 0.00056
91.00 0.00057
91.50 0.00058
92.00 0.00060
92.50 0.00062
93.00 0.00065
93.50 0.00068
94.00 0.00072
94.50 0.00075
95.00 0.00079
95.50 0.00084
96.00 0.00088
96.50 0.00093
97.00 0.00098
97.50 0.00104
98.00 0.00110
98.50 0.00117
99.00 0.00124
99.50 0.00131
100.00 0.00141
100.50 0.00150
101.00 0.00160
101.50 0.00175
102.00 0.00189
102.50 0.00202
103.00 0.00218
103.50 0.00242
104.00 0.00267
104.50 0.00292
105.00 0.00324
105.50 0.00363
106.00 0.00408
106.50 0.00453
107.00 0.00527
107.50 0.00616
108.00 0.00704
108.50 0.00793
109.00 0.00881
109.50 0.01052
110.00 0.01302
110.50 0.01552
111.00 0.01802
111.50 0.02053
112.00 0.02304
112.50 0.02555
113.00 0.02906
113.50 0.03553
114.00 0.04190
114.50 0.04827
115.00 0.05463
115.50 0.06243
116.00 0.07604
116.50 0.08963
117.00 0.10174
117.50 0.11380
118.00 0.13346
118.50 0.15415
119.00 0.17479
119.50 0.19526
120.00 0.21496
120.50 0.23579
121.00 0.26041
121.50 0.28489
122.00 0.30923
122.50 0.32971
123.00 0.34877
123.50 0.36547
124.00 0.37876
124.50 0.39194
125.00 0.40538
125.50 0.41871
126.00 0.43191
126.50 0.44380
127.00 0.45003
127.50 0.45408
128.00 0.46082
128.50 0.47166
129.00 0.48251
129.50 0.49337
130.00 0.50045
130.50 0.50800
131.00 0.52085
131.50 0.53402
132.00 0.54933
132.50 0.56625
133.00 0.58371
133.50 0.60414
134.00 0.62472
134.50 0.64706
135.00 0.67011
135.50 0.69416
136.00 0.71809
136.50 0.74245
137.00 0.76699
137.50 0.79189
138.00 0.81678
138.50 0.84191
139.00 0.86723
139.50 0.89262
140.00 0.91854
140.50 0.94333
141.00 0.96798
141.50 0.99254
142.00 1.01709
142.50 1.04148
143.00 1.06460
143.50 1.08770
144.00 1.10743
144.50 1.12687
145.00 1.14629
145.50 1.16505
146.00 1.18097
146.50 1.19338
147.00 1.20638
147.50 1.22189
148.00 1.23743
148.50 1.25301
149.00 1.26482
149.50 1.27657
150.00 1.28867
150.50 1.30211
151.00 1.31561
151.50 1.32863
152.00 1.34117
152.50 1.35376
153.00 1.36538
153.50 1.37660
154.00 1.38780
154.50 1.39825
155.00 1.40875
155.50 1.41818
156.00 1.42483
156.50 1.43150
157.00 1.43472
157.50 1.43610
158.00 1.43753
158.50 1.43940
159.00 1.44143
159.50 1.44213
160.00 1.44031
160.50 1.43858
161.00 1.43749
161.50 1.43733
162.00 1.43725
162.50 1.43670
163.00 1.43552
163.50 1.43476
164.00 1.43449
164.50 1.43429
165.00 1.43416
165.50 1.43413
166.00 1.43402
166.50 1.43386
167.00 1.43380
167.50 1.43328
168.00 1.43244
168.50 1.43143
169.00 1.42923
169.50 1.42713
170.00 1.42525
170.50 1.42383
171.00 1.42253
171.50 1.42054
172.00 1.41855
172.50 1.41667
173.00 1.41569
173.50 1.41487
174.00 1.41426
174.50 1.41381
175.00 1.41348
175.50 1.41340
176.00 1.41344
176.50 1.41423
177.00 1.41518
177.50 1.41562
178.00 1.41616
178.50 1.41696
179.00 1.41743
179.50 1.41805
180.00 1.41876
180.00 1.41876
180.50 1.41805
181.00 1.41743
181.50 1.41696
182.00 1.41616
182.50 1.41562
183.00 1.41518
183.50 1.41423
184.00 1.41344
184.50 1.41340
185.00 1.41348
185.50 1.41381
186.00 1.41426
186.50 1.41487
187.00 1.41569
187.50 1.41667
188.00 1.41855
188.50 1.42054
189.00 1.42253
189.50 1.42383
190.00 1.42525
190.50 1.42713
191.00 1.42923
191.50 1.43143
192.00 1.43244
192.50 1.43328
193.00 1.43380
193.50 1.43386
194.00 1.43402
194.50 1.43413
195.00 1.43416
195.50 1.43429
196.00 1.43449
196.50 1.43476
197.00 1.43552
197.50 1.43670
198.00 1.43725
198.50 1.43733
199.00 1.43749
199.50 1.43858
200.00 1.44031
200.50 1.44213
201.00 1.44143
201.50 1.43940
202.00 1.43753
202.50 1.43610
203.00 1.43472
203.50 1.43150
204.00 1.42483
204.50 1.41818
205.00 1.40875
205.50 1.39825
206.00 1.38780
206.50 1.37660
207.00 1.36538
207.50 1.35376
208.00 1.34117
208.50 1.32863
209.00 1.31561
209.50 1.30211
210.00 1.28867
210.50 1.27657
211.00 1.26482
211.50 1.25301
212.00 1.23743
212.50 1.22189
213.00 1.20638
213.50 1.19338
214.00 1.18097
214.50 1.16505
215.00 1.14629
215.50 1.12687
216.00 1.10743
216.50 1.08770
217.00 1.06460
217.50 1.04148
218.00 1.01709
218.50 0.99254
219.00 0.96798
219.50 0.94333
220.00 0.91854
220.50 0.89262
221.00 0.86723
221.50 0.84191
222.00 0.81678
222.50 0.79189
223.00 0.76699
223.50 0.74245
224.00 0.71809
224.50 0.69416
225.00 0.67011
225.50 0.64706
226.00 0.62472
226.50 0.60414
227.00 0.58371
227.50 0.56625
228.00 0.54933
228.50 0.53402
229.00 0.52085
229.50 0.50800
230.00 0.50045
230.50 0.49337
231.00 0.48251
231.50 0.47166
232.00 0.46082
232.50 0.45408
233.00 0.45003
233.50 0.44380
234.00 0.43191
234.50 0.41871
235.00 0.40538
235.50 0.39194
236.00 0.37876
236.50 0.36547
237.00 0.34877
237.50 0.32971
238.00 0.30923
238.50 0.28489
239.00 0.26041
239.50 0.23579
240.00 0.21496
240.50 0.19526
241.00 0.17479
241.50 0.15415
242.00 0.13346
242.50 0.11380
243.00 0.10174
243.50 0.08963
244.00 0.07604
244.50 0.06243
245.00 0.05463
245.50 0.04827
246.00 0.04190
246.50 0.03553
247.00 0.02906
247.50 0.02555
248.00 0.02304
248.50 0.02053
249.00 0.01802
249.50 0.01552
250.00 0.01302
250.50 0.01052
251.00 0.00881
251.50 0.00793
252.00 0.00704
252.50 0.00616
253.00 0.00527
253.50 0.00453
254.00 0.00408
254.50 0.00363
255.00 0.00324
255.50 0.00292
256.00 0.00267
256.50 0.00242
257.00 0.00218
257.50 0.00202
258.00 0.00189
258.50 0.00175
259.00 0.00160
259.50 0.00150
260.00 0.00141
260.50 0.00131
261.00 0.00124
261.50 0.00117
262.00 0.00110
262.50 0.00104
263.00 0.00098
263.50 0.00093
264.00 0.00088
264.50 0.00084
265.00 0.00079
265.50 0.00075
266.00 0.00072
266.50 0.00068
267.00 0.00065
267.50 0.00062
268.00 0.00060
268.50 0.00058
269.00 0.00057
269.50 0.00056
270.00 0.00056
270.00 0.00056
270.50 0.00056
271.00 0.00057
271.50 0.00058
272.00 0.00060
272.50 0.00062
273.00 0.00065
273.50 0.00068
274.00 0.00072
274.50 0.00075
275.00 0.00079
275.50 0.00084
276.00 0.00088
276.50 0.00093
277.00 0.00098
277.50 0.00104
278.00 0.00110
278.50 0.00117
279.00 0.00124
279.50 0.00131
280.00 0.00141
280.50 0.00150
281.00 0.00160
281.50 0.00175
282.00 0.00189
282.50 0.00202
283.00 0.00218
283.50 0.00242
284.00 0.00267
284.50 0.00292
285.00 0.00324
285.50 0.00363
286.00 0.00408
286.50 0.00453
287.00 0.00527
287.50 0.00616
288.00 0.00704
288.50 0.00793
289.00 0.00881
289.50 0.01052
290.00 0.01302
290.50 0.01552
291.00 0.01802
291.50 0.02053
292.00 0.02304
292.50 0.02555
293.00 0.02906
293.50 0.03553
294.00 0.04190
294.50 0.04827
295.00 0.05463
295.50 0.06243
296.00 0.07604
296.50 0.08963
297.00 0.10174
297.50 0.11380
298.00 0.13346
298.50 0.15415
299.00 0.17479
299.50 0.19526
300.00 0.21496
300.50 0.23579
301.00 0.26041
301.50 0.28489
302.00 0.30923
302.50 0.32971
303.00 0.34877
303.50 0.36547
304.00 0.37876
304.50 0.39194
305.00 0.40538
305.50 0.41871
306.00 0.43191
306.50 0.44380
307.00 0.45003
307.50 0.45408
308.00 0.46082
308.50 0.47166
309.00 0.48251
309.50 0.49337
310.00 0.50045
310.50 0.50800
311.00 0.52085
311.50 0.53402
312.00 0.54933
312.50 0.56625
313.00 0.58371
313.50 0.60414
314.00 0.62472
314.50 0.64706
315.00 0.67011
315.50 0.69416
316.00 0.71809
316.50 0.74245
317.00 0.76699
317.50 0.79189
318.00 0.81678
318.50 0.84191
319.00 0.86723
319.50 0.89262
320.00 0.91854
320.50 0.94333
321.00 0.96798
321.50 0.99254
322.00 1.01709
322.50 1.04148
323.00 1.06460
323.50 1.08770
324.00 1.10743
324.50 1.12687
325.00 1.14629
325.50 1.16505
326.00 1.18097
326.50 1.19338
327.00 1.20638
327.50 1.22189
328.00 1.23743
328.50 1.25301
329.00 1.26482
329.50 1.27657
330.00 1.28867
330.50 1.30211
331.00 1.31561
331.50 1.32863
332.00 1.34117
332.50 1.35376
333.00 1.36538
333.50 1.37660
334.00 1.38780
334.50 1.39825
335.00 1.40875
335.50 1.41818
336.00 1.42483
336.50 1.43150
337.00 1.43472
337.50 1.43610
338.00 1.43753
338.50 1.43940
339.00 1.44143
339.50 1.44213
340.00 1.44031
340.50 1.43858
341.00 1.43749
341.50 1.43733
342.00 1.43725
342.50 1.43670
343.00 1.43552
343.50 1.43476
344.00 1.43449
344.50 1.43429
345.00 1.43416
345.50 1.43413
346.00 1.43402
346.50 1.43386
347.00 1.43380
347.50 1.43328
348.00 1.43244
348.50 1.43143
349.00 1.42923
349.50 1.42713
350.00 1.42525
350.50 1.42383
351.00 1.42253
351.50 1.42054
352.00 1.41855
352.50 1.41667
353.00 1.41569
353.50 1.41487
354.00 1.41426
354.50 1.41381
355.00 1.41348
355.50 1.41340
356.00 1.41344
356.50 1.41423
357.00 1.41518
357.50 1.41562
358.00 1.41616
358.50 1.41696
359.00 1.41743
359.50 1.41805
360.00 1.41876
