phi[deg] B[T]
0.00 1.63791
0.50 1.63729
1.00 1.63680
1.50 1.63643
2.00 1.63614
2.50 1.63580
3.00 1.63558
3.50 1.63550
4.00 1.63556
4.50 1.63586
5.00 1.63628
5.50 1.63709
6.00 1.63821
6.50 1.63945
7.00 1.64045
7.50 1.64146
8.00 1.64260
8.50 1.64386
9.00 1.64642
9.50 1.64925
10.00 1.65121
10.50 1.65233
11.00 1.65283
11.50 1.65343
12.00 1.65412
12.50 1.65325
13.00 1.65179
13.50 1.65034
14.00 1.64840
14.50 1.64655
15.00 1.64479
15.50 1.64254
16.00 1.64026
16.50 1.63791
17.00 1.63460
17.50 1.63139
18.00 1.62828
18.50 1.62572
19.00 1.62453
19.50 1.62309
20.00 1.62141
20.50 1.61622
21.00 1.61107
21.50 1.60596
22.00 1.60078
22.50 1.59436
23.00 1.58799
23.50 1.57885
24.00 1.56721
24.50 1.55560
25.00 1.54400
25.50 1.52789
26.00 1.51174
26.50 1.49549
27.00 1.47891
27.50 1.46238
28.00 1.44589
28.50 1.42906
29.00 1.41182
29.50 1.39563
30.00 1.37909
30.50 1.36172
31.00 1.34441
31.50 1.32715
32.00 1.31017
32.50 1.29494
33.00 1.27976
33.50 1.26155
34.00 1.24213
34.50 1.22275
35.00 1.20340
35.50 1.18485
36.00 1.16774
36.50 1.14740
37.00 1.12556
37.50 1.10432
38.00 1.08311
38.50 1.06192
39.00 1.04028
39.50 1.01859
40.00 0.99685
40.50 0.97514
41.00 0.95353
41.50 0.93234
42.00 0.91131
42.50 0.89033
43.00 0.86968
43.50 0.84939
44.00 0.82940
44.50 0.80973
45.00 0.79013
45.50 0.77173
46.00 0.75338
46.50 0.73632
47.00 0.72012
47.50 0.70410
48.00 0.68985
48.50 0.67550
49.00 0.66257
49.50 0.64940
50.00 0.63623
50.50 0.62785
51.00 0.62031
51.50 0.60668
52.00 0.59074
52.50 0.57474
53.00 0.55889
53.50 0.55006
54.00 0.54112
54.50 0.52772
55.00 0.51220
55.50 0.49625
56.00 0.47514
56.50 0.45387
57.00 0.43244
57.50 0.40713
58.00 0.38155
58.50 0.35584
59.00 0.33073
59.50 0.30617
60.00 0.28036
60.50 0.25408
61.00 0.22768
61.50 0.20117
62.00 0.17864
62.50 0.16094
63.00 0.14281
63.50 0.12466
64.00 0.10649
64.50 0.09308
65.00 0.08287
65.50 0.07265
66.00 0.06255
66.50 0.05283
67.00 0.04715
67.50 0.04173
68.00 0.03630
68.50 0.03087
69.00 0.02649
69.50 0.02348
70.00 0.02047
70.50 0.01767
71.00 0.01499
71.50 0.01312
72.00 0.01170
72.50 0.01031
73.00 0.00894
73.50 0.00757
74.00 0.00646
74.50 0.00576
75.00 0.00506
75.50 0.00436
76.00 0.00382
76.50 0.00328
77.00 0.00285
77.50 0.00255
78.00 0.00224
78.50 0.00193
79.00 0.00168
79.50 0.00144
80.00 0.00129
80.50 0.00116
81.00 0.00103
81.50 0.00090
82.00 0.00077
82.50 0.00069
83.00 0.00063
83.50 0.00056
84.00 0.00049
84.50 0.00042
85.00 0.00038
85.50 0.00034
86.00 0.00030
86.50 0.00027
87.00 0.00024
87.50 0.00022
88.00 0.00019
88.50 0.00018
89.00 0.00017
89.50 0.00016
90.00 0.00015
90.00 0.00015
90.50 0.00016
91.00 0.00017
91.50 0.00018
92.00 0.00019
92.50 0.00022
93.00 0.00024
93.50 0.00027
94.00 0.00030
94.50 0.00034
95.00 0.00038
95.50 0.00042
96.00 0.00049
96.50 0.00056
97.00 0.00063
97.50 0.00069
98.00 0.00077
98.50 0.00090
99.00 0.00103
99.50 0.00116
100.00 0.00129
100.50 0.00144
101.00 0.00168
101.50 0.00193
102.00 0.00224
102.50 0.00255
103.00 0.00285
103.50 0.00328
104.00 0.00382
104.50 0.00436
105.00 0.00506
105.50 0.00576
106.00 0.00646
106.50 0.00757
107.00 0.00894
107.50 0.01031
108.00 0.01170
108.50 0.01312
109.00 0.01499
109.50 0.01767
110.00 0.02047
110.50 0.02348
111.00 0.02649
111.50 0.03087
112.00 0.03630
112.50 0.04173
113.00 0.04715
113.50 0.05283
114.00 0.06255
114.50 0.07265
115.00 0.08287
115.50 0.09308
116.00 0.10649
116.50 0.12466
117.00 0.14281
117.50 0.16094
118.00 0.17864
118.50 0.20117
119.00 0.22768
119.50 0.25408
120.00 0.28036
120.50 0.30617
121.00 0.33073
121.50 0.35584
122.00 0.38155
122.50 0.40713
123.00 0.43244
123.50 0.45387
124.00 0.47514
124.50 0.49625
125.00 0.51220
125.50 0.52772
126.00 0.54112
126.50 0.55006
127.00 0.55889
127.50 0.57474
128.00 0.59074
128.50 0.60668
129.00 0.62031
129.50 0.62785
130.00 0.63623
130.50 0.64940
131.00 0.66257
131.50 0.67550
132.00 0.68985
132.50 0.70410
133.00 0.72012
133.50 0.73632
134.00 0.75338
134.50 0.77173
135.00 0.79013
135.50 0.80973
136.00 0.82940
136.50 0.84939
137.00 0.86968
137.50 0.89033
138.00 0.91131
138.50 0.93234
139.00 0.95353
139.50 0.97514
140.00 0.99685
140.50 1.01859
141.00 1.04028
141.50 1.06192
142.00 1.08311
142.50 1.10432
143.00 1.12556
143.50 1.14740
144.00 1.16774
144.50 1.18485
145.00 1.20340
145.50 1.22275
146.00 1.24213
146.50 1.26155
147.00 1.27976
147.50 1.29494
148.00 1.31017
148.50 1.32715
149.00 1.34441
149.50 1.36172
150.00 1.37909
150.50 1.39563
151.00 1.41182
151.50 1.42906
152.00 1.44589
152.50 1.46238
153.00 1.47891
153.50 1.49549
154.00 1.51174
154.50 1.52789
155.00 1.54400
155.50 1.55560
156.00 1.56721
156.50 1.57885
157.00 1.58799
157.50 1.59436
158.00 1.60078
158.50 1.60596
159.00 1.61107
159.50 1.61622
160.00 1.62141
160.50 1.62309
161.00 1.62453
161.50 1.62572
162.00 1.62828
162.50 1.63139
163.00 1.63460
163.50 1.63791
164.00 1.64026
164.50 1.64254
165.00 1.64479
165.50 1.64655
166.00 1.64840
166.50 1.65034
167.00 1.65179
167.50 1.65325
168.00 1.65412
168.50 1.65343
169.00 1.65283
169.50 1.65233
170.00 1.65121
170.50 1.64925
171.00 1.64642
171.50 1.64386
172.00 1.64260
172.50 1.64146
173.00 1.64045
173.50 1.63945
174.00 1.63821
174.50 1.63709
175.00 1.63628
175.50 1.63586
176.00 1.63556
176.50 1.63550
177.00 1.63558
177.50 1.63580
178.00 1.63614
178.50 1.63643
179.00 1.63680
179.50 1.63729
180.00 1.63791
180.00 1.63791
180.50 1.63729
181.00 1.63680
181.50 1.63643
182.00 1.63614
182.50 1.63580
183.00 1.63558
183.50 1.63550
184.00 1.63556
184.50 1.63586
185.00 1.63628
185.50 1.63709
186.00 1.63821
186.50 1.63945
187.00 1.64045
187.50 1.64146
188.00 1.64260
188.50 1.64386
189.00 1.64642
189.50 1.64925
190.00 1.65121
190.50 1.65233
191.00 1.65283
191.50 1.65343
192.00 1.65412
192.50 1.65325
193.00 1.65179
193.50 1.65034
194.00 1.64840
194.50 1.64655
195.00 1.64479
195.50 1.64254
196.00 1.64026
196.50 1.63791
197.00 1.63460
197.50 1.63139
198.00 1.62828
198.50 1.62572
199.00 1.62453
199.50 1.62309
200.00 1.62141
200.50 1.61622
201.00 1.61107
201.50 1.60596
202.00 1.60078
202.50 1.59436
203.00 1.58799
203.50 1.57885
204.00 1.56721
204.50 1.55560
205.00 1.54400
205.50 1.52789
206.00 1.51174
206.50 1.49549
207.00 1.47891
207.50 1.46238
208.00 1.44589
208.50 1.42906
209.00 1.41182
209.50 1.39563
210.00 1.37909
210.50 1.36172
211.00 1.34441
211.50 1.32715
212.00 1.31017
212.50 1.29494
213.00 1.27976
213.50 1.26155
214.00 1.24213
214.50 1.22275
215.00 1.20340
215.50 1.18485
216.00 1.16774
216.50 1.14740
217.00 1.12556
217.50 1.10432
218.00 1.08311
218.50 1.06192
219.00 1.04028
219.50 1.01859
220.00 0.99685
220.50 0.97514
221.00 0.95353
221.50 0.93234
222.00 0.91131
222.50 0.89033
223.00 0.86968
223.50 0.84939
224.00 0.82940
224.50 0.80973
225.00 0.79013
225.50 0.77173
226.00 0.75338
226.50 0.73632
227.00 0.72012
227.50 0.70410
228.00 0.68985
228.50 0.67550
229.00 0.66257
229.50 0.64940
230.00 0.63623
230.50 0.62785
231.00 0.62031
231.50 0.60668
232.00 0.59074
232.50 0.57474
233.00 0.55889
233.50 0.55006
234.00 0.54112
234.50 0.52772
235.00 0.51220
235.50 0.49625
236.00 0.47514
236.50 0.45387
237.00 0.43244
237.50 0.40713
238.00 0.38155
238.50 0.35584
239.00 0.33073
239.50 0.30617
240.00 0.28036
240.50 0.25408
241.00 0.22768
241.50 0.20117
242.00 0.17864
242.50 0.16094
243.00 0.14281
243.50 0.12466
244.00 0.10649
244.50 0.09308
245.00 0.08287
245.50 0.07265
246.00 0.06255
246.50 0.05283
247.00 0.04715
247.50 0.04173
248.00 0.03630
248.50 0.03087
249.00 0.02649
249.50 0.02348
250.00 0.02047
250.50 0.01767
251.00 0.01499
251.50 0.01312
252.00 0.01170
252.50 0.01031
253.00 0.00894
253.50 0.00757
254.00 0.00646
254.50 0.00576
255.00 0.00506
255.50 0.00436
256.00 0.00382
256.50 0.00328
257.00 0.00285
257.50 0.00255
258.00 0.00224
258.50 0.00193
259.00 0.00168
259.50 0.00144
260.00 0.00129
260.50 0.00116
261.00 0.00103
261.50 0.00090
262.00 0.00077
262.50 0.00069
263.00 0.00063
263.50 0.00056
264.00 0.00049
264.50 0.00042
265.00 0.00038
265.50 0.00034
266.00 0.00030
266.50 0.00027
267.00 0.00024
267.50 0.00022
268.00 0.00019
268.50 0.00018
269.00 0.00017
269.50 0.00016
270.00 0.00015
270.00 0.00015
270.50 0.00016
271.00 0.00017
271.50 0.00018
272.00 0.00019
272.50 0.00022
273.00 0.00024
273.50 0.00027
274.00 0.00030
274.50 0.00034
275.00 0.00038
275.50 0.00042
276.00 0.00049
276.50 0.00056
277.00 0.00063
277.50 0.00069
278.00 0.00077
278.50 0.00090
279.00 0.00103
279.50 0.00116
280.00 0.00129
280.50 0.00144
281.00 0.00168
281.50 0.00193
282.00 0.00224
282.50 0.00255
283.00 0.00285
283.50 0.00328
284.00 0.00382
284.50 0.00436
285.00 0.00506
285.50 0.00576
286.00 0.00646
286.50 0.00757
287.00 0.00894
287.50 0.01031
288.00 0.01170
288.50 0.01312
289.00 0.01499
289.50 0.01767
290.00 0.02047
290.50 0.02348
291.00 0.02649
291.50 0.03087
292.00 0.03630
292.50 0.04173
293.00 0.04715
293.50 0.05283
294.00 0.06255
294.50 0.07265
295.00 0.08287
295.50 0.09308
296.00 0.10649
296.50 0.12466
297.00 0.14281
297.50 0.16094
298.00 0.17864
298.50 0.20117
299.00 0.22768
299.50 0.25408
300.00 0.28036
300.50 0.30617
301.00 0.33073
301.50 0.35584
302.00 0.38155
302.50 0.40713
303.00 0.43244
303.50 0.45387
304.00 0.47514
304.50 0.49625
305.00 0.51220
305.50 0.52772
306.00 0.54112
306.50 0.55006
307.00 0.55889
307.50 0.57474
308.00 0.59074
308.50 0.60668
309.00 0.62031
309.50 0.62785
310.00 0.63623
310.50 0.64940
311.00 0.66257
311.50 0.67550
312.00 0.68985
312.50 0.70410
313.00 0.72012
313.50 0.73632
314.00 0.75338
314.50 0.77173
315.00 0.79013
315.50 0.80973
316.00 0.82940
316.50 0.84939
317.00 0.86968
317.50 0.89033
318.00 0.91131
318.50 0.93234
319.00 0.95353
319.50 0.97514
320.00 0.99685
320.50 1.01859
321.00 1.04028
321.50 1.06192
322.00 1.08311
322.50 1.10432
323.00 1.12556
323.50 1.14740
324.00 1.16774
324.50 1.18485
325.00 1.20340
325.50 1.22275
326.00 1.24213
326.50 1.26155
327.00 1.27976
327.50 1.29494
328.00 1.31017
328.50 1.32715
329.00 1.34441
329.50 1.36172
330.00 1.37909
330.50 1.39563
331.00 1.41182
331.50 1.42906
332.00 1.44589
332.50 1.46238
333.00 1.47891
333.50 1.49549
334.00 1.51174
334.50 1.52789
335.00 1.54400
335.50 1.55560
336.00 1.56721
336.50 1.57885
337.00 1.58799
337.50 1.59436
338.00 1.60078
338.50 1.60596
339.00 1.61107
339.50 1.61622
340.00 1.62141
340.50 1.62309
341.00 1.62453
341.50 1.62572
342.00 1.62828
342.50 1.63139
343.00 1.63460
343.50 1.63791
344.00 1.64026
344.50 1.64254
345.00 1.64479
345.50 1.64655
346.00 1.64840
346.50 1.65034
347.00 1.65179
347.50 1.65325
348.00 1.65412
348.50 1.65343
349.00 1.65283
349.50 1.65233
350.00 1.65121
350.50 1.64925
351.00 1.64642
351.50 1.64386
352.00 1.64260
352.50 1.64146
353.00 1.64045
353.50 1.63945
354.00 1.63821
354.50 1.63709
355.00 1.63628
355.50 1.63586
356.00 1.63556
356.50 1.63550
357.00 1.63558
357.50 1.63580
358.00 1.63614
358.50 1.63643
359.00 1.63680
359.50 1.63729
360.00 1.63791
