phi[deg] B[T]
0.00 1.64988
0.50 1.64917
1.00 1.64858
1.50 1.64812
2.00 1.64774
2.50 1.64722
3.00 1.64684
3.50 1.64658
4.00 1.64652
4.50 1.64678
5.00 1.64717
5.50 1.64798
6.00 1.64907
6.50 1.65029
7.00 1.65134
7.50 1.65249
8.00 1.65377
8.50 1.65517
9.00 1.65806
9.50 1.66103
10.00 1.66316
10.50 1.66427
11.00 1.66486
11.50 1.66554
12.00 1.66632
12.50 1.66520
13.00 1.66344
13.50 1.66175
14.00 1.65962
14.50 1.65759
15.00 1.65566
15.50 1.65306
16.00 1.65046
16.50 1.64776
17.00 1.64438
17.50 1.64110
18.00 1.63792
18.50 1.63523
19.00 1.63399
19.50 1.63265
20.00 1.63129
20.50 1.62630
21.00 1.62107
21.50 1.61588
22.00 1.61072
22.50 1.60405
23.00 1.59743
23.50 1.58830
24.00 1.57630
24.50 1.56432
25.00 1.55234
25.50 1.53540
26.00 1.51831
26.50 1.50126
27.00 1.48424
27.50 1.46728
28.00 1.45036
28.50 1.43291
29.00 1.41495
29.50 1.39837
30.00 1.38149
30.50 1.36413
31.00 1.34684
31.50 1.32961
32.00 1.31271
32.50 1.29757
33.00 1.28250
33.50 1.26435
34.00 1.24592
34.50 1.22752
35.00 1.20917
35.50 1.19276
36.00 1.17630
36.50 1.15620
37.00 1.13614
37.50 1.11609
38.00 1.09611
38.50 1.07623
39.00 1.05639
39.50 1.03561
40.00 1.01481
40.50 0.99423
41.00 0.97398
41.50 0.95375
42.00 0.93341
42.50 0.91311
43.00 0.89279
43.50 0.87286
44.00 0.85281
44.50 0.83258
45.00 0.81249
45.50 0.79314
46.00 0.77385
46.50 0.75493
47.00 0.73681
47.50 0.71875
48.00 0.70166
48.50 0.68515
49.00 0.67163
49.50 0.65740
50.00 0.64121
50.50 0.62502
51.00 0.61234
51.50 0.60117
52.00 0.58962
52.50 0.57576
53.00 0.55848
53.50 0.54113
54.00 0.52818
54.50 0.51684
55.00 0.50105
55.50 0.48406
56.00 0.46459
56.50 0.44298
57.00 0.42119
57.50 0.39868
58.00 0.37247
58.50 0.34611
59.00 0.32024
59.50 0.29616
60.00 0.27195
60.50 0.24680
61.00 0.21880
61.50 0.19069
62.00 0.16699
62.50 0.15037
63.00 0.13372
63.50 0.11725
64.00 0.10128
64.50 0.08529
65.00 0.07316
65.50 0.06529
66.00 0.05743
66.50 0.04956
67.00 0.04205
67.50 0.03470
68.00 0.03088
68.50 0.02735
69.00 0.02408
69.50 0.02082
70.00 0.01755
70.50 0.01473
71.00 0.01298
71.50 0.01122
72.00 0.00971
72.50 0.00852
73.00 0.00734
73.50 0.00622
74.00 0.00546
74.50 0.00470
75.00 0.00406
75.50 0.00362
76.00 0.00318
76.50 0.00274
77.00 0.00234
77.50 0.00197
78.00 0.00175
78.50 0.00156
79.00 0.00139
79.50 0.00122
80.00 0.00105
80.50 0.00090
81.00 0.00080
81.50 0.00071
82.00 0.00063
82.50 0.00056
83.00 0.00050
83.50 0.00044
84.00 0.00039
84.50 0.00034
85.00 0.00031
85.50 0.00027
86.00 0.00024
86.50 0.00021
87.00 0.00018
87.50 0.00016
88.00 0.00013
88.50 0.00011
89.00 0.00010
89.50 0.00009
90.00 0.00008
90.00 0.00008
90.50 0.00009
91.00 0.00010
91.50 0.00011
92.00 0.00013
92.50 0.00016
93.00 0.00018
93.50 0.00021
94.00 0.00024
94.50 0.00027
95.00 0.00031
95.50 0.00034
96.00 0.00039
96.50 0.00044
97.00 0.00050
97.50 0.00056
98.00 0.00063
98.50 0.00071
99.00 0.00080
99.50 0.00090
100.00 0.00105
100.50 0.00122
101.00 0.00139
101.50 0.00156
102.00 0.00175
102.50 0.00197
103.00 0.00234
103.50 0.00274
104.00 0.00318
104.50 0.00362
105.00 0.00406
105.50 0.00470
106.00 0.00546
106.50 0.00622
107.00 0.00734
107.50 0.00852
108.00 0.00971
108.50 0.01122
109.00 0.01298
109.50 0.01473
110.00 0.01755
110.50 0.02082
111.00 0.02408
111.50 0.02735
112.00 0.03088
112.50 0.03470
113.00 0.04205
113.50 0.04956
114.00 0.05743
114.50 0.06529
115.00 0.07316
115.50 0.08529
116.00 0.10128
116.50 0.11725
117.00 0.13372
117.50 0.15037
118.00 0.16699
118.50 0.19069
119.00 0.21880
119.50 0.24680
120.00 0.27195
120.50 0.29616
121.00 0.32024
121.50 0.34611
122.00 0.37247
122.50 0.39868
123.00 0.42119
123.50 0.44298
124.00 0.46459
124.50 0.48406
125.00 0.50105
125.50 0.51684
126.00 0.52818
126.50 0.54113
127.00 0.55848
127.50 0.57576
128.00 0.58962
128.50 0.60117
129.00 0.61234
129.50 0.62502
130.00 0.64121
130.50 0.65740
131.00 0.67163
131.50 0.68515
132.00 0.70166
132.50 0.71875
133.00 0.73681
133.50 0.75493
134.00 0.77385
134.50 0.79314
135.00 0.81249
135.50 0.83258
136.00 0.85281
136.50 0.87286
137.00 0.89279
137.50 0.91311
138.00 0.93341
138.50 0.95375
139.00 0.97398
139.50 0.99423
140.00 1.01481
140.50 1.03561
141.00 1.05639
141.50 1.07623
142.00 1.09611
142.50 1.11609
143.00 1.13614
143.50 1.15620
144.00 1.17630
144.50 1.19276
145.00 1.20917
145.50 1.22752
146.00 1.24592
146.50 1.26435
147.00 1.28250
147.50 1.29757
148.00 1.31271
148.50 1.32961
149.00 1.34684
149.50 1.36413
150.00 1.38149
150.50 1.39837
151.00 1.41495
151.50 1.43291
152.00 1.45036
152.50 1.46728
153.00 1.48424
153.50 1.50126
154.00 1.51831
154.50 1.53540
155.00 1.55234
155.50 1.56432
156.00 1.57630
156.50 1.58830
157.00 1.59743
157.50 1.60405
158.00 1.61072
158.50 1.61588
159.00 1.62107
159.50 1.62630
160.00 1.63129
160.50 1.63265
161.00 1.63399
161.50 1.63523
162.00 1.63792
162.50 1.64110
163.00 1.64438
163.50 1.64776
164.00 1.65046
164.50 1.65306
165.00 1.65566
165.50 1.65759
166.00 1.65962
166.50 1.66175
167.00 1.66344
167.50 1.66520
168.00 1.66632
168.50 1.66554
169.00 1.66486
169.50 1.66427
170.00 1.66316
170.50 1.66103
171.00 1.65806
171.50 1.65517
172.00 1.65377
172.50 1.65249
173.00 1.65134
173.50 1.65029
174.00 1.64907
174.50 1.64798
175.00 1.64717
175.50 1.64678
176.00 1.64652
176.50 1.64658
177.00 1.64684
177.50 1.64722
178.00 1.64774
178.50 1.64812
179.00 1.64858
179.50 1.64917
180.00 1.64988
180.00 1.64988
180.50 1.64917
181.00 1.64858
181.50 1.64812
182.00 1.64774
182.50 1.64722
183.00 1.64684
183.50 1.64658
184.00 1.64652
184.50 1.64678
185.00 1.64717
185.50 1.64798
186.00 1.64907
186.50 1.65029
187.00 1.65134
187.50 1.65249
188.00 1.65377
188.50 1.65517
189.00 1.65806
189.50 1.66103
190.00 1.66316
190.50 1.66427
191.00 1.66486
191.50 1.66554
192.00 1.66632
192.50 1.66520
193.00 1.66344
193.50 1.66175
194.00 1.65962
194.50 1.65759
195.00 1.65566
195.50 1.65306
196.00 1.65046
196.50 1.64776
197.00 1.64438
197.50 1.64110
198.00 1.63792
198.50 1.63523
199.00 1.63399
199.50 1.63265
200.00 1.63129
200.50 1.62630
201.00 1.62107
201.50 1.61588
202.00 1.61072
202.50 1.60405
203.00 1.59743
203.50 1.58830
204.00 1.57630
204.50 1.56432
205.00 1.55234
205.50 1.53540
206.00 1.51831
206.50 1.50126
207.00 1.48424
207.50 1.46728
208.00 1.45036
208.50 1.43291
209.00 1.41495
209.50 1.39837
210.00 1.38149
210.50 1.36413
211.00 1.34684
211.50 1.32961
212.00 1.31271
212.50 1.29757
213.00 1.28250
213.50 1.26435
214.00 1.24592
214.50 1.22752
215.00 1.20917
215.50 1.19276
216.00 1.17630
216.50 1.15620
217.00 1.13614
217.50 1.11609
218.00 1.09611
218.50 1.07623
219.00 1.05639
219.50 1.03561
220.00 1.01481
220.50 0.99423
221.00 0.97398
221.50 0.95375
222.00 0.93341
222.50 0.91311
223.00 0.89279
223.50 0.87286
224.00 0.85281
224.50 0.83258
225.00 0.81249
225.50 0.79314
226.00 0.77385
226.50 0.75493
227.00 0.73681
227.50 0.71875
228.00 0.70166
228.50 0.68515
229.00 0.67163
229.50 0.65740
230.00 0.64121
230.50 0.62502
231.00 0.61234
231.50 0.60117
232.00 0.58962
232.50 0.57576
233.00 0.55848
233.50 0.54113
234.00 0.52818
234.50 0.51684
235.00 0.50105
235.50 0.48406
236.00 0.46459
236.50 0.44298
237.00 0.42119
237.50 0.39868
238.00 0.37247
238.50 0.34611
239.00 0.32024
239.50 0.29616
240.00 0.27195
240.50 0.24680
241.00 0.21880
241.50 0.19069
242.00 0.16699
242.50 0.15037
243.00 0.13372
243.50 0.11725
244.00 0.10128
244.50 0.08529
245.00 0.07316
245.50 0.06529
246.00 0.05743
246.50 0.04956
247.00 0.04205
247.50 0.03470
248.00 0.03088
248.50 0.02735
249.00 0.02408
249.50 0.02082
250.00 0.01755
250.50 0.01473
251.00 0.01298
251.50 0.01122
252.00 0.00971
252.50 0.00852
253.00 0.00734
253.50 0.00622
254.00 0.00546
254.50 0.00470
255.00 0.00406
255.50 0.00362
256.00 0.00318
256.50 0.00274
257.00 0.00234
257.50 0.00197
258.00 0.00175
258.50 0.00156
259.00 0.00139
259.50 0.00122
260.00 0.00105
260.50 0.00090
261.00 0.00080
261.50 0.00071
262.00 0.00063
262.50 0.00056
263.00 0.00050
263.50 0.00044
264.00 0.00039
264.50 0.00034
265.00 0.00031
265.50 0.00027
266.00 0.00024
266.50 0.00021
267.00 0.00018
267.50 0.00016
268.00 0.00013
268.50 0.00011
269.00 0.00010
269.50 0.00009
270.00 0.00008
270.00 0.00008
270.50 0.00009
271.00 0.00010
271.50 0.00011
272.00 0.00013
272.50 0.00016
273.00 0.00018
273.50 0.00021
274.00 0.00024
274.50 0.00027
275.00 0.00031
275.50 0.00034
276.00 0.00039
276.50 0.00044
277.00 0.00050
277.50 0.00056
278.00 0.00063
278.50 0.00071
279.00 0.00080
279.50 0.00090
280.00 0.00105
280.50 0.00122
281.00 0.00139
281.50 0.00156
282.00 0.00175
282.50 0.00197
283.00 0.00234
283.50 0.00274
284.00 0.00318
284.50 0.00362
285.00 0.00406
285.50 0.00470
286.00 0.00546
286.50 0.00622
287.00 0.00734
287.50 0.00852
288.00 0.00971
288.50 0.01122
289.00 0.01298
289.50 0.01473
290.00 0.01755
290.50 0.02082
291.00 0.02408
291.50 0.02735
292.00 0.03088
292.50 0.03470
293.00 0.04205
293.50 0.04956
294.00 0.05743
294.50 0.06529
295.00 0.07316
295.50 0.08529
296.00 0.10128
296.50 0.11725
297.00 0.13372
297.50 0.15037
298.00 0.16699
298.50 0.19069
299.00 0.21880
299.50 0.24680
300.00 0.27195
300.50 0.29616
301.00 0.32024
301.50 0.34611
302.00 0.37247
302.50 0.39868
303.00 0.42119
303.50 0.44298
304.00 0.46459
304.50 0.48406
305.00 0.50105
305.50 0.51684
306.00 0.52818
306.50 0.54113
307.00 0.55848
307.50 0.57576
308.00 0.58962
308.50 0.60117
309.00 0.61234
309.50 0.62502
310.00 0.64121
310.50 0.65740
311.00 0.67163
311.50 0.68515
312.00 0.70166
312.50 0.71875
313.00 0.73681
313.50 0.75493
314.00 0.77385
314.50 0.79314
315.00 0.81249
315.50 0.83258
316.00 0.85281
316.50 0.87286
317.00 0.89279
317.50 0.91311
318.00 0.93341
318.50 0.95375
319.00 0.97398
319.50 0.99423
320.00 1.01481
320.50 1.03561
321.00 1.05639
321.50 1.07623
322.00 1.09611
322.50 1.11609
323.00 1.13614
323.50 1.15620
324.00 1.17630
324.50 1.19276
325.00 1.20917
325.50 1.22752
326.00 1.24592
326.50 1.26435
327.00 1.28250
327.50 1.29757
328.00 1.31271
328.50 1.32961
329.00 1.34684
329.50 1.36413
330.00 1.38149
330.50 1.39837
331.00 1.41495
331.50 1.43291
332.00 1.45036
332.50 1.46728
333.00 1.48424
333.50 1.50126
334.00 1.51831
334.50 1.53540
335.00 1.55234
335.50 1.56432
336.00 1.57630
336.50 1.58830
337.00 1.59743
337.50 1.60405
338.00 1.61072
338.50 1.61588
339.00 1.62107
339.50 1.62630
340.00 1.63129
340.50 1.63265
341.00 1.63399
341.50 1.63523
342.00 1.63792
342.50 1.64110
343.00 1.64438
343.50 1.64776
344.00 1.65046
344.50 1.65306
345.00 1.65566
345.50 1.65759
346.00 1.65962
346.50 1.66175
347.00 1.66344
347.50 1.66520
348.00 1.66632
348.50 1.66554
349.00 1.66486
349.50 1.66427
350.00 1.66316
350.50 1.66103
351.00 1.65806
351.50 1.65517
352.00 1.65377
352.50 1.65249
353.00 1.65134
353.50 1.65029
354.00 1.64907
354.50 1.64798
355.00 1.64717
355.50 1.64678
356.00 1.64652
356.50 1.64658
357.00 1.64684
357.50 1.64722
358.00 1.64774
358.50 1.64812
359.00 1.64858
359.50 1.64917
360.00 1.64988
