phi[deg] B[T]
0.00 1.77329
0.50 1.77267
1.00 1.77219
1.50 1.77183
2.00 1.77161
2.50 1.77143
3.00 1.77128
3.50 1.77125
4.00 1.77136
4.50 1.77160
5.00 1.77201
5.50 1.77257
6.00 1.77326
6.50 1.77338
7.00 1.77362
7.50 1.77399
8.00 1.77482
8.50 1.77579
9.00 1.77688
9.50 1.77678
10.00 1.77560
10.50 1.77466
11.00 1.77539
11.50 1.77621
12.00 1.77571
12.50 1.77387
13.00 1.77113
13.50 1.76788
14.00 1.76472
14.50 1.76164
15.00 1.75866
15.50 1.75576
16.00 1.75288
16.50 1.74982
17.00 1.74710
17.50 1.74208
18.00 1.73685
18.50 1.73169
19.00 1.72659
19.50 1.72157
20.00 1.71661
20.50 1.71245
21.00 1.70994
21.50 1.70341
22.00 1.69458
22.50 1.68574
23.00 1.67656
23.50 1.66741
24.00 1.65830
24.50 1.64745
25.00 1.63464
25.50 1.62189
26.00 1.60859
26.50 1.59377
27.00 1.57900
27.50 1.56486
28.00 1.55077
28.50 1.53655
29.00 1.52196
29.50 1.50735
30.00 1.49057
30.50 1.47383
31.00 1.45712
31.50 1.44045
32.00 1.42424
32.50 1.40978
33.00 1.39534
33.50 1.37704
34.00 1.35763
34.50 1.33822
35.00 1.31883
35.50 1.29926
36.00 1.27957
36.50 1.25929
37.00 1.23902
37.50 1.21855
38.00 1.19640
38.50 1.17426
39.00 1.15208
39.50 1.13020
40.00 1.10864
40.50 1.08707
41.00 1.06538
41.50 1.04370
42.00 1.02267
42.50 1.00178
43.00 0.98080
43.50 0.95981
44.00 0.93885
44.50 0.91791
45.00 0.89691
45.50 0.87614
46.00 0.85549
46.50 0.83481
47.00 0.81392
47.50 0.79301
48.00 0.77144
48.50 0.75074
49.00 0.73000
49.50 0.71016
50.00 0.69080
50.50 0.66996
51.00 0.64760
51.50 0.62518
52.00 0.60557
52.50 0.58681
53.00 0.56797
53.50 0.54849
54.00 0.52845
54.50 0.50832
55.00 0.48813
55.50 0.46612
56.00 0.44393
56.50 0.42225
57.00 0.40073
57.50 0.37912
58.00 0.35742
58.50 0.33564
59.00 0.31504
59.50 0.29437
60.00 0.27294
60.50 0.25143
61.00 0.22986
61.50 0.20823
62.00 0.19285
62.50 0.17860
63.00 0.16432
63.50 0.15001
64.00 0.13546
64.50 0.11975
65.00 0.10403
65.50 0.09207
66.00 0.08412
66.50 0.07616
67.00 0.06929
67.50 0.06251
68.00 0.05575
68.50 0.04898
69.00 0.04302
69.50 0.03909
70.00 0.03514
70.50 0.03120
71.00 0.02795
71.50 0.02531
72.00 0.02266
72.50 0.02002
73.00 0.01793
73.50 0.01618
74.00 0.01443
74.50 0.01268
75.00 0.01155
75.50 0.01053
76.00 0.00950
76.50 0.00848
77.00 0.00747
77.50 0.00663
78.00 0.00578
78.50 0.00528
79.00 0.00484
79.50 0.00441
80.00 0.00399
80.50 0.00357
81.00 0.00315
81.50 0.00274
82.00 0.00248
82.50 0.00227
83.00 0.00205
83.50 0.00184
84.00 0.00167
84.50 0.00149
85.00 0.00132
85.50 0.00124
86.00 0.00116
86.50 0.00107
87.00 0.00099
87.50 0.00091
88.00 0.00087
88.50 0.00084
89.00 0.00080
89.50 0.00077
90.00 0.00074
90.00 0.00074
90.50 0.00077
91.00 0.00080
91.50 0.00084
92.00 0.00087
92.50 0.00091
93.00 0.00099
93.50 0.00107
94.00 0.00116
94.50 0.00124
95.00 0.00132
95.50 0.00149
96.00 0.00167
96.50 0.00184
97.00 0.00205
97.50 0.00227
98.00 0.00248
98.50 0.00274
99.00 0.00315
99.50 0.00357
100.00 0.00399
100.50 0.00441
101.00 0.00484
101.50 0.00528
102.00 0.00578
102.50 0.00663
103.00 0.00747
103.50 0.00848
104.00 0.00950
104.50 0.01053
105.00 0.01155
105.50 0.01268
106.00 0.01443
106.50 0.01618
107.00 0.01793
107.50 0.02002
108.00 0.02266
108.50 0.02531
109.00 0.02795
109.50 0.03120
110.00 0.03514
110.50 0.03909
111.00 0.04302
111.50 0.04898
112.00 0.05575
112.50 0.06251
113.00 0.06929
113.50 0.07616
114.00 0.08412
114.50 0.09207
115.00 0.10403
115.50 0.11975
116.00 0.13546
116.50 0.15001
117.00 0.16432
117.50 0.17860
118.00 0.19285
118.50 0.20823
119.00 0.22986
119.50 0.25143
120.00 0.27294
120.50 0.29437
121.00 0.31504
121.50 0.33564
122.00 0.35742
122.50 0.37912
123.00 0.40073
123.50 0.42225
124.00 0.44393
124.50 0.46612
125.00 0.48813
125.50 0.50832
126.00 0.52845
126.50 0.54849
127.00 0.56797
127.50 0.58681
128.00 0.60557
128.50 0.62518
129.00 0.64760
129.50 0.66996
130.00 0.69080
130.50 0.71016
131.00 0.73000
131.50 0.75074
132.00 0.77144
132.50 0.79301
133.00 0.81392
133.50 0.83481
134.00 0.85549
134.50 0.87614
135.00 0.89691
135.50 0.91791
136.00 0.93885
136.50 0.95981
137.00 0.98080
137.50 1.00178
138.00 1.02267
138.50 1.04370
139.00 1.06538
139.50 1.08707
140.00 1.10864
140.50 1.13020
141.00 1.15208
141.50 1.17426
142.00 1.19640
142.50 1.21855
143.00 1.23902
143.50 1.25929
144.00 1.27957
144.50 1.29926
145.00 1.31883
145.50 1.33822
146.00 1.35763
146.50 1.37704
147.00 1.39534
147.50 1.40978
148.00 1.42424
148.50 1.44045
149.00 1.45712
149.50 1.47383
150.00 1.49057
150.50 1.50735
151.00 1.52196
151.50 1.53655
152.00 1.55077
152.50 1.56486
153.00 1.57900
153.50 1.59377
154.00 1.60859
154.50 1.62189
155.00 1.63464
155.50 1.64745
156.00 1.65830
156.50 1.66741
157.00 1.67656
157.50 1.68574
158.00 1.69458
158.50 1.70341
159.00 1.70994
159.50 1.71245
160.00 1.71661
160.50 1.72157
161.00 1.72659
161.50 1.73169
162.00 1.73685
162.50 1.74208
163.00 1.74710
163.50 1.74982
164.00 1.75288
164.50 1.75576
165.00 1.75866
165.50 1.76164
166.00 1.76472
166.50 1.76788
167.00 1.77113
167.50 1.77387
168.00 1.77571
168.50 1.77621
169.00 1.77539
169.50 1.77466
170.00 1.77560
170.50 1.77678
171.00 1.77688
171.50 1.77579
172.00 1.77482
172.50 1.77399
173.00 1.77362
173.50 1.77338
174.00 1.77326
174.50 1.77257
175.00 1.77201
175.50 1.77160
176.00 1.77136
176.50 1.77125
177.00 1.77128
177.50 1.77143
178.00 1.77161
178.50 1.77183
179.00 1.77219
179.50 1.77267
180.00 1.77329
180.00 1.77329
180.50 1.77267
181.00 1.77219
181.50 1.77183
182.00 1.77161
182.50 1.77143
183.00 1.77128
183.50 1.77125
184.00 1.77136
184.50 1.77160
185.00 1.77201
185.50 1.77257
186.00 1.77326
186.50 1.77338
187.00 1.77362
187.50 1.77399
188.00 1.77482
188.50 1.77579
189.00 1.77688
189.50 1.77678
190.00 1.77560
190.50 1.77466
191.00 1.77539
191.50 1.77621
192.00 1.77571
192.50 1.77387
193.00 1.77113
193.50 1.76788
194.00 1.76472
194.50 1.76164
195.00 1.75866
195.50 1.75576
196.00 1.75288
196.50 1.74982
197.00 1.74710
197.50 1.74208
198.00 1.73685
198.50 1.73169
199.00 1.72659
199.50 1.72157
200.00 1.71661
200.50 1.71245
201.00 1.70994
201.50 1.70341
202.00 1.69458
202.50 1.68574
203.00 1.67656
203.50 1.66741
204.00 1.65830
204.50 1.64745
205.00 1.63464
205.50 1.62189
206.00 1.60859
206.50 1.59377
207.00 1.57900
207.50 1.56486
208.00 1.55077
208.50 1.53655
209.00 1.52196
209.50 1.50735
210.00 1.49057
210.50 1.47383
211.00 1.45712
211.50 1.44045
212.00 1.42424
212.50 1.40978
213.00 1.39534
213.50 1.37704
214.00 1.35763
214.50 1.33822
215.00 1.31883
215.50 1.29926
216.00 1.27957
216.50 1.25929
217.00 1.23902
217.50 1.21855
218.00 1.19640
218.50 1.17426
219.00 1.15208
219.50 1.13020
220.00 1.10864
220.50 1.08707
221.00 1.06538
221.50 1.04370
222.00 1.02267
222.50 1.00178
223.00 0.98080
223.50 0.95981
224.00 0.93885
224.50 0.91791
225.00 0.89691
225.50 0.87614
226.00 0.85549
226.50 0.83481
227.00 0.81392
227.50 0.79301
228.00 0.77144
228.50 0.75074
229.00 0.73000
229.50 0.71016
230.00 0.69080
230.50 0.66996
231.00 0.64760
231.50 0.62518
232.00 0.60557
232.50 0.58681
233.00 0.56797
233.50 0.54849
234.00 0.52845
234.50 0.50832
235.00 0.48813
235.50 0.46612
236.00 0.44393
236.50 0.42225
237.00 0.40073
237.50 0.37912
238.00 0.35742
238.50 0.33564
239.00 0.31504
239.50 0.29437
240.00 0.27294
240.50 0.25143
241.00 0.22986
241.50 0.20823
242.00 0.19285
242.50 0.17860
243.00 0.16432
243.50 0.15001
244.00 0.13546
244.50 0.11975
245.00 0.10403
245.50 0.09207
246.00 0.08412
246.50 0.07616
247.00 0.06929
247.50 0.06251
248.00 0.05575
248.50 0.04898
249.00 0.04302
249.50 0.03909
250.00 0.03514
250.50 0.03120
251.00 0.02795
251.50 0.02531
252.00 0.02266
252.50 0.02002
253.00 0.01793
253.50 0.01618
254.00 0.01443
254.50 0.01268
255.00 0.01155
255.50 0.01053
256.00 0.00950
256.50 0.00848
257.00 0.00747
257.50 0.00663
258.00 0.00578
258.50 0.00528
259.00 0.00484
259.50 0.00441
260.00 0.00399
260.50 0.00357
261.00 0.00315
261.50 0.00274
262.00 0.00248
262.50 0.00227
263.00 0.00205
263.50 0.00184
264.00 0.00167
264.50 0.00149
265.00 0.00132
265.50 0.00124
266.00 0.00116
266.50 0.00107
267.00 0.00099
267.50 0.00091
268.00 0.00087
268.50 0.00084
269.00 0.00080
269.50 0.00077
270.00 0.00074
270.00 0.00074
270.50 0.00077
271.00 0.00080
271.50 0.00084
272.00 0.00087
272.50 0.00091
273.00 0.00099
273.50 0.00107
274.00 0.00116
274.50 0.00124
275.00 0.00132
275.50 0.00149
276.00 0.00167
276.50 0.00184
277.00 0.00205
277.50 0.00227
278.00 0.00248
278.50 0.00274
279.00 0.00315
279.50 0.00357
280.00 0.00399
280.50 0.00441
281.00 0.00484
281.50 0.00528
282.00 0.00578
282.50 0.00663
283.00 0.00747
283.50 0.00848
284.00 0.00950
284.50 0.01053
285.00 0.01155
285.50 0.01268
286.00 0.01443
286.50 0.01618
287.00 0.01793
287.50 0.02002
288.00 0.02266
288.50 0.02531
289.00 0.02795
289.50 0.03120
290.00 0.03514
290.50 0.03909
291.00 0.04302
291.50 0.04898
292.00 0.05575
292.50 0.06251
293.00 0.06929
293.50 0.07616
294.00 0.08412
294.50 0.09207
295.00 0.10403
295.50 0.11975
296.00 0.13546
296.50 0.15001
297.00 0.16432
297.50 0.17860
298.00 0.19285
298.50 0.20823
299.00 0.22986
299.50 0.25143
300.00 0.27294
300.50 0.29437
301.00 0.31504
301.50 0.33564
302.00 0.35742
302.50 0.37912
303.00 0.40073
303.50 0.42225
304.00 0.44393
304.50 0.46612
305.00 0.48813
305.50 0.50832
306.00 0.52845
306.50 0.54849
307.00 0.56797
307.50 0.58681
308.00 0.60557
308.50 0.62518
309.00 0.64760
309.50 0.66996
310.00 0.69080
310.50 0.71016
311.00 0.73000
311.50 0.75074
312.00 0.77144
312.50 0.79301
313.00 0.81392
313.50 0.83481
314.00 0.85549
314.50 0.87614
315.00 0.89691
315.50 0.91791
316.00 0.93885
316.50 0.95981
317.00 0.98080
317.50 1.00178
318.00 1.02267
318.50 1.04370
319.00 1.06538
319.50 1.08707
320.00 1.10864
320.50 1.13020
321.00 1.15208
321.50 1.17426
322.00 1.19640
322.50 1.21855
323.00 1.23902
323.50 1.25929
324.00 1.27957
324.50 1.29926
325.00 1.31883
325.50 1.33822
326.00 1.35763
326.50 1.37704
327.00 1.39534
327.50 1.40978
328.00 1.42424
328.50 1.44045
329.00 1.45712
329.50 1.47383
330.00 1.49057
330.50 1.50735
331.00 1.52196
331.50 1.53655
332.00 1.55077
332.50 1.56486
333.00 1.57900
333.50 1.59377
334.00 1.60859
334.50 1.62189
335.00 1.63464
335.50 1.64745
336.00 1.65830
336.50 1.66741
337.00 1.67656
337.50 1.68574
338.00 1.69458
338.50 1.70341
339.00 1.70994
339.50 1.71245
340.00 1.71661
340.50 1.72157
341.00 1.72659
341.50 1.73169
342.00 1.73685
342.50 1.74208
343.00 1.74710
343.50 1.74982
344.00 1.75288
344.50 1.75576
345.00 1.75866
345.50 1.76164
346.00 1.76472
346.50 1.76788
347.00 1.77113
347.50 1.77387
348.00 1.77571
348.50 1.77621
349.00 1.77539
349.50 1.77466
350.00 1.77560
350.50 1.77678
351.00 1.77688
351.50 1.77579
352.00 1.77482
352.50 1.77399
353.00 1.77362
353.50 1.77338
354.00 1.77326
354.50 1.77257
355.00 1.77201
355.50 1.77160
356.00 1.77136
356.50 1.77125
357.00 1.77128
357.50 1.77143
358.00 1.77161
358.50 1.77183
359.00 1.77219
359.50 1.77267
360.00 1.77329
