phi[deg] B[T]
0.00 1.47145
0.50 1.47090
1.00 1.47046
1.50 1.47013
2.00 1.46990
2.50 1.46962
3.00 1.46946
3.50 1.46942
4.00 1.46957
4.50 1.47006
5.00 1.47067
5.50 1.47172
6.00 1.47301
6.50 1.47442
7.00 1.47570
7.50 1.47709
8.00 1.47861
8.50 1.48023
9.00 1.48310
9.50 1.48627
10.00 1.48887
10.50 1.49009
11.00 1.49105
11.50 1.49208
12.00 1.49320
12.50 1.49265
13.00 1.49153
13.50 1.49045
14.00 1.48903
14.50 1.48770
15.00 1.48645
15.50 1.48467
16.00 1.48285
16.50 1.48104
17.00 1.47851
17.50 1.47606
18.00 1.47371
18.50 1.47185
19.00 1.47124
19.50 1.47058
20.00 1.46966
20.50 1.46539
21.00 1.46115
21.50 1.45695
22.00 1.45261
22.50 1.44711
23.00 1.44165
23.50 1.43373
24.00 1.42314
24.50 1.41256
25.00 1.40194
25.50 1.38668
26.00 1.37146
26.50 1.35628
27.00 1.34117
27.50 1.32609
28.00 1.31106
28.50 1.29559
29.00 1.27971
29.50 1.26528
30.00 1.25034
30.50 1.23466
31.00 1.21904
31.50 1.20346
32.00 1.18830
32.50 1.17470
33.00 1.16114
33.50 1.14416
34.00 1.12650
34.50 1.10886
35.00 1.09125
35.50 1.07502
36.00 1.05875
36.50 1.03806
37.00 1.01745
37.50 0.99793
38.00 0.97828
38.50 0.95806
39.00 0.93787
39.50 0.91768
40.00 0.89753
40.50 0.87768
41.00 0.85852
41.50 0.83942
42.00 0.82085
42.50 0.80233
43.00 0.78428
43.50 0.76670
44.00 0.74951
44.50 0.73283
45.00 0.71623
45.50 0.70096
46.00 0.68568
46.50 0.67158
47.00 0.65810
47.50 0.64485
48.00 0.63270
48.50 0.62335
49.00 0.61299
49.50 0.60124
50.00 0.58951
50.50 0.58048
51.00 0.57369
51.50 0.56432
52.00 0.55138
52.50 0.53837
53.00 0.52530
53.50 0.51447
54.00 0.50582
54.50 0.49167
55.00 0.47360
55.50 0.45535
56.00 0.43693
56.50 0.41835
57.00 0.40114
57.50 0.38400
58.00 0.35514
58.50 0.33089
59.00 0.30817
59.50 0.28532
60.00 0.26196
60.50 0.23630
61.00 0.21053
61.50 0.18462
62.00 0.16122
62.50 0.14191
63.00 0.12774
63.50 0.11348
64.00 0.09908
64.50 0.08467
65.00 0.07023
65.50 0.06219
66.00 0.05504
66.50 0.04788
67.00 0.04090
67.50 0.03396
68.00 0.03005
68.50 0.02654
69.00 0.02312
69.50 0.01971
70.00 0.01630
70.50 0.01457
71.00 0.01291
71.50 0.01124
72.00 0.00957
72.50 0.00799
73.00 0.00699
73.50 0.00623
74.00 0.00548
74.50 0.00474
75.00 0.00399
75.50 0.00341
76.00 0.00302
76.50 0.00263
77.00 0.00226
77.50 0.00193
78.00 0.00167
78.50 0.00150
79.00 0.00133
79.50 0.00117
80.00 0.00101
80.50 0.00085
81.00 0.00076
81.50 0.00067
82.00 0.00059
82.50 0.00053
83.00 0.00047
83.50 0.00041
84.00 0.00037
84.50 0.00032
85.00 0.00029
85.50 0.00026
86.00 0.00022
86.50 0.00019
87.00 0.00017
87.50 0.00014
88.00 0.00012
88.50 0.00010
89.00 0.00009
89.50 0.00008
90.00 0.00007
90.00 0.00007
90.50 0.00008
91.00 0.00009
91.50 0.00010
92.00 0.00012
92.50 0.00014
93.00 0.00017
93.50 0.00019
94.00 0.00022
94.50 0.00026
95.00 0.00029
95.50 0.00032
96.00 0.00037
96.50 0.00041
97.00 0.00047
97.50 0.00053
98.00 0.00059
98.50 0.00067
99.00 0.00076
99.50 0.00085
100.00 0.00101
100.50 0.00117
101.00 0.00133
101.50 0.00150
102.00 0.00167
102.50 0.00193
103.00 0.00226
103.50 0.00263
104.00 0.00302
104.50 0.00341
105.00 0.00399
105.50 0.00474
106.00 0.00548
106.50 0.00623
107.00 0.00699
107.50 0.00799
108.00 0.00957
108.50 0.01124
109.00 0.01291
109.50 0.01457
110.00 0.01630
110.50 0.01971
111.00 0.02312
111.50 0.02654
112.00 0.03005
112.50 0.03396
113.00 0.04090
113.50 0.04788
114.00 0.05504
114.50 0.06219
115.00 0.07023
115.50 0.08467
116.00 0.09908
116.50 0.11348
117.00 0.12774
117.50 0.14191
118.00 0.16122
118.50 0.18462
119.00 0.21053
119.50 0.23630
120.00 0.26196
120.50 0.28532
121.00 0.30817
121.50 0.33089
122.00 0.35514
122.50 0.38400
123.00 0.40114
123.50 0.41835
124.00 0.43693
124.50 0.45535
125.00 0.47360
125.50 0.49167
126.00 0.50582
126.50 0.51447
127.00 0.52530
127.50 0.53837
128.00 0.55138
128.50 0.56432
129.00 0.57369
129.50 0.58048
130.00 0.58951
130.50 0.60124
131.00 0.61299
131.50 0.62335
132.00 0.63270
132.50 0.64485
133.00 0.65810
133.50 0.67158
134.00 0.68568
134.50 0.70096
135.00 0.71623
135.50 0.73283
136.00 0.74951
136.50 0.76670
137.00 0.78428
137.50 0.80233
138.00 0.82085
138.50 0.83942
139.00 0.85852
139.50 0.87768
140.00 0.89753
140.50 0.91768
141.00 0.93787
141.50 0.95806
142.00 0.97828
142.50 0.99793
143.00 1.01745
143.50 1.03806
144.00 1.05875
144.50 1.07502
145.00 1.09125
145.50 1.10886
146.00 1.12650
146.50 1.14416
147.00 1.16114
147.50 1.17470
148.00 1.18830
148.50 1.20346
149.00 1.21904
149.50 1.23466
150.00 1.25034
150.50 1.26528
151.00 1.27971
151.50 1.29559
152.00 1.31106
152.50 1.32609
153.00 1.34117
153.50 1.35628
154.00 1.37146
154.50 1.38668
155.00 1.40194
155.50 1.41256
156.00 1.42314
156.50 1.43373
157.00 1.44165
157.50 1.44711
158.00 1.45261
158.50 1.45695
159.00 1.46115
159.50 1.46539
160.00 1.46966
160.50 1.47058
161.00 1.47124
161.50 1.47185
162.00 1.47371
162.50 1.47606
163.00 1.47851
163.50 1.48104
164.00 1.48285
164.50 1.48467
165.00 1.48645
165.50 1.48770
166.00 1.48903
166.50 1.49045
167.00 1.49153
167.50 1.49265
168.00 1.49320
168.50 1.49208
169.00 1.49105
169.50 1.49009
170.00 1.48887
170.50 1.48627
171.00 1.48310
171.50 1.48023
172.00 1.47861
172.50 1.47709
173.00 1.47570
173.50 1.47442
174.00 1.47301
174.50 1.47172
175.00 1.47067
175.50 1.47006
176.00 1.46957
176.50 1.46942
177.00 1.46946
177.50 1.46962
178.00 1.46990
178.50 1.47013
179.00 1.47046
179.50 1.47090
180.00 1.47145
180.00 1.47145
180.50 1.47090
181.00 1.47046
181.50 1.47013
182.00 1.46990
182.50 1.46962
183.00 1.46946
183.50 1.46942
184.00 1.46957
184.50 1.47006
185.00 1.47067
185.50 1.47172
186.00 1.47301
186.50 1.47442
187.00 1.47570
187.50 1.47709
188.00 1.47861
188.50 1.48023
189.00 1.48310
189.50 1.48627
190.00 1.48887
190.50 1.49009
191.00 1.49105
191.50 1.49208
192.00 1.49320
192.50 1.49265
193.00 1.49153
193.50 1.49045
194.00 1.48903
194.50 1.48770
195.00 1.48645
195.50 1.48467
196.00 1.48285
196.50 1.48104
197.00 1.47851
197.50 1.47606
198.00 1.47371
198.50 1.47185
199.00 1.47124
199.50 1.47058
200.00 1.46966
200.50 1.46539
201.00 1.46115
201.50 1.45695
202.00 1.45261
202.50 1.44711
203.00 1.44165
203.50 1.43373
204.00 1.42314
204.50 1.41256
205.00 1.40194
205.50 1.38668
206.00 1.37146
206.50 1.35628
207.00 1.34117
207.50 1.32609
208.00 1.31106
208.50 1.29559
209.00 1.27971
209.50 1.26528
210.00 1.25034
210.50 1.23466
211.00 1.21904
211.50 1.20346
212.00 1.18830
212.50 1.17470
213.00 1.16114
213.50 1.14416
214.00 1.12650
214.50 1.10886
215.00 1.09125
215.50 1.07502
216.00 1.05875
216.50 1.03806
217.00 1.01745
217.50 0.99793
218.00 0.97828
218.50 0.95806
219.00 0.93787
219.50 0.91768
220.00 0.89753
220.50 0.87768
221.00 0.85852
221.50 0.83942
222.00 0.82085
222.50 0.80233
223.00 0.78428
223.50 0.76670
224.00 0.74951
224.50 0.73283
225.00 0.71623
225.50 0.70096
226.00 0.68568
226.50 0.67158
227.00 0.65810
227.50 0.64485
228.00 0.63270
228.50 0.62335
229.00 0.61299
229.50 0.60124
230.00 0.58951
230.50 0.58048
231.00 0.57369
231.50 0.56432
232.00 0.55138
232.50 0.53837
233.00 0.52530
233.50 0.51447
234.00 0.50582
234.50 0.49167
235.00 0.47360
235.50 0.45535
236.00 0.43693
236.50 0.41835
237.00 0.40114
237.50 0.38400
238.00 0.35514
238.50 0.33089
239.00 0.30817
239.50 0.28532
240.00 0.26196
240.50 0.23630
241.00 0.21053
241.50 0.18462
242.00 0.16122
242.50 0.14191
243.00 0.12774
243.50 0.11348
244.00 0.09908
244.50 0.08467
245.00 0.07023
245.50 0.06219
246.00 0.05504
246.50 0.04788
247.00 0.04090
247.50 0.03396
248.00 0.03005
248.50 0.02654
249.00 0.02312
249.50 0.01971
250.00 0.01630
250.50 0.01457
251.00 0.01291
251.50 0.01124
252.00 0.00957
252.50 0.00799
253.00 0.00699
253.50 0.00623
254.00 0.00548
254.50 0.00474
255.00 0.00399
255.50 0.00341
256.00 0.00302
256.50 0.00263
257.00 0.00226
257.50 0.00193
258.00 0.00167
258.50 0.00150
259.00 0.00133
259.50 0.00117
260.00 0.00101
260.50 0.00085
261.00 0.00076
261.50 0.00067
262.00 0.00059
262.50 0.00053
263.00 0.00047
263.50 0.00041
264.00 0.00037
264.50 0.00032
265.00 0.00029
265.50 0.00026
266.00 0.00022
266.50 0.00019
267.00 0.00017
267.50 0.00014
268.00 0.00012
268.50 0.00010
269.00 0.00009
269.50 0.00008
270.00 0.00007
270.00 0.00007
270.50 0.00008
271.00 0.00009
271.50 0.00010
272.00 0.00012
272.50 0.00014
273.00 0.00017
273.50 0.00019
274.00 0.00022
274.50 0.00026
275.00 0.00029
275.50 0.00032
276.00 0.00037
276.50 0.00041
277.00 0.00047
277.50 0.00053
278.00 0.00059
278.50 0.00067
279.00 0.00076
279.50 0.00085
280.00 0.00101
280.50 0.00117
281.00 0.00133
281.50 0.00150
282.00 0.00167
282.50 0.00193
283.00 0.00226
283.50 0.00263
284.00 0.00302
284.50 0.00341
285.00 0.00399
285.50 0.00474
286.00 0.00548
286.50 0.00623
287.00 0.00699
287.50 0.00799
288.00 0.00957
288.50 0.01124
289.00 0.01291
289.50 0.01457
290.00 0.01630
290.50 0.01971
291.00 0.02312
291.50 0.02654
292.00 0.03005
292.50 0.03396
293.00 0.04090
293.50 0.04788
294.00 0.05504
294.50 0.06219
295.00 0.07023
295.50 0.08467
296.00 0.09908
296.50 0.11348
297.00 0.12774
297.50 0.14191
298.00 0.16122
298.50 0.18462
299.00 0.21053
299.50 0.23630
300.00 0.26196
300.50 0.28532
301.00 0.30817
301.50 0.33089
302.00 0.35514
302.50 0.38400
303.00 0.40114
303.50 0.41835
304.00 0.43693
304.50 0.45535
305.00 0.47360
305.50 0.49167
306.00 0.50582
306.50 0.51447
307.00 0.52530
307.50 0.53837
308.00 0.55138
308.50 0.56432
309.00 0.57369
309.50 0.58048
310.00 0.58951
310.50 0.60124
311.00 0.61299
311.50 0.62335
312.00 0.63270
312.50 0.64485
313.00 0.65810
313.50 0.67158
314.00 0.68568
314.50 0.70096
315.00 0.71623
315.50 0.73283
316.00 0.74951
316.50 0.76670
317.00 0.78428
317.50 0.80233
318.00 0.82085
318.50 0.83942
319.00 0.85852
319.50 0.87768
320.00 0.89753
320.50 0.91768
321.00 0.93787
321.50 0.95806
322.00 0.97828
322.50 0.99793
323.00 1.01745
323.50 1.03806
324.00 1.05875
324.50 1.07502
325.00 1.09125
325.50 1.10886
326.00 1.12650
326.50 1.14416
327.00 1.16114
327.50 1.17470
328.00 1.18830
328.50 1.20346
329.00 1.21904
329.50 1.23466
330.00 1.25034
330.50 1.26528
331.00 1.27971
331.50 1.29559
332.00 1.31106
332.50 1.32609
333.00 1.34117
333.50 1.35628
334.00 1.37146
334.50 1.38668
335.00 1.40194
335.50 1.41256
336.00 1.42314
336.50 1.43373
337.00 1.44165
337.50 1.44711
338.00 1.45261
338.50 1.45695
339.00 1.46115
339.50 1.46539
340.00 1.46966
340.50 1.47058
341.00 1.47124
341.50 1.47185
342.00 1.47371
342.50 1.47606
343.00 1.47851
343.50 1.48104
344.00 1.48285
344.50 1.48467
345.00 1.48645
345.50 1.48770
346.00 1.48903
346.50 1.49045
347.00 1.49153
347.50 1.49265
348.00 1.49320
348.50 1.49208
349.00 1.49105
349.50 1.49009
350.00 1.48887
350.50 1.48627
351.00 1.48310
351.50 1.48023
352.00 1.47861
352.50 1.47709
353.00 1.47570
353.50 1.47442
354.00 1.47301
354.50 1.47172
355.00 1.47067
355.50 1.47006
356.00 1.46957
356.50 1.46942
357.00 1.46946
357.50 1.46962
358.00 1.46990
358.50 1.47013
359.00 1.47046
359.50 1.47090
360.00 1.47145
