phi[deg] B[T]
0.00 1.47977
0.50 1.47850
1.00 1.47750
1.50 1.47569
2.00 1.47188
2.50 1.46838
3.00 1.46504
3.50 1.45917
4.00 1.45299
4.50 1.44675
5.00 1.43957
5.50 1.43201
6.00 1.42128
6.50 1.41047
7.00 1.39999
7.50 1.38994
8.00 1.37881
8.50 1.36168
9.00 1.34445
9.50 1.32766
10.00 1.31386
10.50 1.29585
11.00 1.27623
11.50 1.25647
12.00 1.23731
12.50 1.21856
13.00 1.19444
13.50 1.16824
14.00 1.14190
14.50 1.11661
15.00 1.09043
15.50 1.06244
16.00 1.03426
16.50 1.00598
17.00 0.97774
17.50 0.94457
18.00 0.91008
18.50 0.87538
19.00 0.84047
19.50 0.80537
20.00 0.77132
20.50 0.73703
21.00 0.70251
21.50 0.66776
22.00 0.62758
22.50 0.58654
23.00 0.55017
23.50 0.51363
24.00 0.47692
24.50 0.43867
25.00 0.40417
25.50 0.37565
26.00 0.34704
26.50 0.31836
27.00 0.28959
27.50 0.25800
28.00 0.23235
28.50 0.21244
29.00 0.19519
29.50 0.17794
30.00 0.16069
30.50 0.14345
31.00 0.12750
31.50 0.11255
32.00 0.10257
32.50 0.09417
33.00 0.08617
33.50 0.07859
34.00 0.07103
34.50 0.06347
35.00 0.05591
35.50 0.04868
36.00 0.04448
36.50 0.04027
37.00 0.03605
37.50 0.03282
38.00 0.02976
38.50 0.02670
39.00 0.02364
39.50 0.02118
40.00 0.01905
40.50 0.01722
41.00 0.01572
41.50 0.01422
42.00 0.01272
42.50 0.01123
43.00 0.01021
43.50 0.00932
44.00 0.00843
44.50 0.00754
45.00 0.00666
45.50 0.00612
46.00 0.00558
46.50 0.00504
47.00 0.00450
47.50 0.00397
48.00 0.00365
48.50 0.00335
49.00 0.00304
49.50 0.00274
50.00 0.00243
50.50 0.00219
51.00 0.00198
51.50 0.00181
52.00 0.00167
52.50 0.00154
53.00 0.00140
53.50 0.00126
54.00 0.00113
54.50 0.00101
55.00 0.00095
55.50 0.00089
56.00 0.00084
56.50 0.00078
57.00 0.00073
57.50 0.00067
58.00 0.00061
58.50 0.00057
59.00 0.00054
59.50 0.00052
60.00 0.00049
60.50 0.00047
61.00 0.00044
61.50 0.00042
62.00 0.00040
62.50 0.00038
63.00 0.00037
63.50 0.00036
64.00 0.00034
64.50 0.00033
65.00 0.00032
65.50 0.00031
66.00 0.00030
66.50 0.00029
67.00 0.00028
67.50 0.00028
68.00 0.00027
68.50 0.00026
69.00 0.00026
69.50 0.00025
70.00 0.00024
70.50 0.00024
71.00 0.00023
71.50 0.00022
72.00 0.00022
72.50 0.00021
73.00 0.00020
73.50 0.00020
74.00 0.00019
74.50 0.00019
75.00 0.00018
75.50 0.00017
76.00 0.00017
76.50 0.00016
77.00 0.00016
77.50 0.00015
78.00 0.00015
78.50 0.00014
79.00 0.00013
79.50 0.00013
80.00 0.00012
80.50 0.00012
81.00 0.00011
81.50 0.00010
82.00 0.00010
82.50 0.00009
83.00 0.00009
83.50 0.00008
84.00 0.00007
84.50 0.00007
85.00 0.00006
85.50 0.00006
86.00 0.00005
86.50 0.00005
87.00 0.00004
87.50 0.00003
88.00 0.00003
88.50 0.00003
89.00 0.00002
89.50 0.00002
90.00 0.00002
90.00 0.00002
90.50 0.00002
91.00 0.00002
91.50 0.00003
92.00 0.00003
92.50 0.00003
93.00 0.00004
93.50 0.00005
94.00 0.00005
94.50 0.00006
95.00 0.00006
95.50 0.00007
96.00 0.00007
96.50 0.00008
97.00 0.00009
97.50 0.00009
98.00 0.00010
98.50 0.00010
99.00 0.00011
99.50 0.00012
100.00 0.00012
100.50 0.00013
101.00 0.00013
101.50 0.00014
102.00 0.00015
102.50 0.00015
103.00 0.00016
103.50 0.00016
104.00 0.00017
104.50 0.00017
105.00 0.00018
105.50 0.00019
106.00 0.00019
106.50 0.00020
107.00 0.00020
107.50 0.00021
108.00 0.00022
108.50 0.00022
109.00 0.00023
109.50 0.00024
110.00 0.00024
110.50 0.00025
111.00 0.00026
111.50 0.00026
112.00 0.00027
112.50 0.00028
113.00 0.00028
113.50 0.00029
114.00 0.00030
114.50 0.00031
115.00 0.00032
115.50 0.00033
116.00 0.00034
116.50 0.00036
117.00 0.00037
117.50 0.00038
118.00 0.00040
118.50 0.00042
119.00 0.00044
119.50 0.00047
120.00 0.00049
120.50 0.00052
121.00 0.00054
121.50 0.00057
122.00 0.00061
122.50 0.00067
123.00 0.00073
123.50 0.00078
124.00 0.00084
124.50 0.00089
125.00 0.00095
125.50 0.00101
126.00 0.00113
126.50 0.00126
127.00 0.00140
127.50 0.00154
128.00 0.00167
128.50 0.00181
129.00 0.00198
129.50 0.00219
130.00 0.00243
130.50 0.00274
131.00 0.00304
131.50 0.00335
132.00 0.00365
132.50 0.00397
133.00 0.00450
133.50 0.00504
134.00 0.00558
134.50 0.00612
135.00 0.00666
135.50 0.00754
136.00 0.00843
136.50 0.00932
137.00 0.01021
137.50 0.01123
138.00 0.01272
138.50 0.01422
139.00 0.01572
139.50 0.01722
140.00 0.01905
140.50 0.02118
141.00 0.02364
141.50 0.02670
142.00 0.02976
142.50 0.03282
143.00 0.03605
143.50 0.04027
144.00 0.04448
144.50 0.04868
145.00 0.05591
145.50 0.06347
146.00 0.07103
146.50 0.07859
147.00 0.08617
147.50 0.09417
148.00 0.10257
148.50 0.11255
149.00 0.12750
149.50 0.14345
150.00 0.16069
150.50 0.17794
151.00 0.19519
151.50 0.21244
152.00 0.23235
152.50 0.25800
153.00 0.28959
153.50 0.31836
154.00 0.34704
154.50 0.37565
155.00 0.40417
155.50 0.43867
156.00 0.47692
156.50 0.51363
157.00 0.55017
157.50 0.58654
158.00 0.62758
158.50 0.66776
159.00 0.70251
159.50 0.73703
160.00 0.77132
160.50 0.80537
161.00 0.84047
161.50 0.87538
162.00 0.91008
162.50 0.94457
163.00 0.97774
163.50 1.00598
164.00 1.03426
164.50 1.06244
165.00 1.09043
165.50 1.11661
166.00 1.14190
166.50 1.16824
167.00 1.19444
167.50 1.21856
168.00 1.23731
168.50 1.25647
169.00 1.27623
169.50 1.29585
170.00 1.31386
170.50 1.32766
171.00 1.34445
171.50 1.36168
172.00 1.37881
172.50 1.38994
173.00 1.39999
173.50 1.41047
174.00 1.42128
174.50 1.43201
175.00 1.43957
175.50 1.44675
176.00 1.45299
176.50 1.45917
177.00 1.46504
177.50 1.46838
178.00 1.47188
178.50 1.47569
179.00 1.47750
179.50 1.47850
180.00 1.47977
180.00 1.47977
180.50 1.47850
181.00 1.47750
181.50 1.47569
182.00 1.47188
182.50 1.46838
183.00 1.46504
183.50 1.45917
184.00 1.45299
184.50 1.44675
185.00 1.43957
185.50 1.43201
186.00 1.42128
186.50 1.41047
187.00 1.39999
187.50 1.38994
188.00 1.37881
188.50 1.36168
189.00 1.34445
189.50 1.32766
190.00 1.31386
190.50 1.29585
191.00 1.27623
191.50 1.25647
192.00 1.23731
192.50 1.21856
193.00 1.19444
193.50 1.16824
194.00 1.14190
194.50 1.11661
195.00 1.09043
195.50 1.06244
196.00 1.03426
196.50 1.00598
197.00 0.97774
197.50 0.94457
198.00 0.91008
198.50 0.87538
199.00 0.84047
199.50 0.80537
200.00 0.77132
200.50 0.73703
201.00 0.70251
201.50 0.66776
202.00 0.62758
202.50 0.58654
203.00 0.55017
203.50 0.51363
204.00 0.47692
204.50 0.43867
205.00 0.40417
205.50 0.37565
206.00 0.34704
206.50 0.31836
207.00 0.28959
207.50 0.25800
208.00 0.23235
208.50 0.21244
209.00 0.19519
209.50 0.17794
210.00 0.16069
210.50 0.14345
211.00 0.12750
211.50 0.11255
212.00 0.10257
212.50 0.09417
213.00 0.08617
213.50 0.07859
214.00 0.07103
214.50 0.06347
215.00 0.05591
215.50 0.04868
216.00 0.04448
216.50 0.04027
217.00 0.03605
217.50 0.03282
218.00 0.02976
218.50 0.02670
219.00 0.02364
219.50 0.02118
220.00 0.01905
220.50 0.01722
221.00 0.01572
221.50 0.01422
222.00 0.01272
222.50 0.01123
223.00 0.01021
223.50 0.00932
224.00 0.00843
224.50 0.00754
225.00 0.00666
225.50 0.00612
226.00 0.00558
226.50 0.00504
227.00 0.00450
227.50 0.00397
228.00 0.00365
228.50 0.00335
229.00 0.00304
229.50 0.00274
230.00 0.00243
230.50 0.00219
231.00 0.00198
231.50 0.00181
232.00 0.00167
232.50 0.00154
233.00 0.00140
233.50 0.00126
234.00 0.00113
234.50 0.00101
235.00 0.00095
235.50 0.00089
236.00 0.00084
236.50 0.00078
237.00 0.00073
237.50 0.00067
238.00 0.00061
238.50 0.00057
239.00 0.00054
239.50 0.00052
240.00 0.00049
240.50 0.00047
241.00 0.00044
241.50 0.00042
242.00 0.00040
242.50 0.00038
243.00 0.00037
243.50 0.00036
244.00 0.00034
244.50 0.00033
245.00 0.00032
245.50 0.00031
246.00 0.00030
246.50 0.00029
247.00 0.00028
247.50 0.00028
248.00 0.00027
248.50 0.00026
249.00 0.00026
249.50 0.00025
250.00 0.00024
250.50 0.00024
251.00 0.00023
251.50 0.00022
252.00 0.00022
252.50 0.00021
253.00 0.00020
253.50 0.00020
254.00 0.00019
254.50 0.00019
255.00 0.00018
255.50 0.00017
256.00 0.00017
256.50 0.00016
257.00 0.00016
257.50 0.00015
258.00 0.00015
258.50 0.00014
259.00 0.00013
259.50 0.00013
260.00 0.00012
260.50 0.00012
261.00 0.00011
261.50 0.00010
262.00 0.00010
262.50 0.00009
263.00 0.00009
263.50 0.00008
264.00 0.00007
264.50 0.00007
265.00 0.00006
265.50 0.00006
266.00 0.00005
266.50 0.00005
267.00 0.00004
267.50 0.00003
268.00 0.00003
268.50 0.00003
269.00 0.00002
269.50 0.00002
270.00 0.00002
270.00 0.00002
270.50 0.00002
271.00 0.00002
271.50 0.00003
272.00 0.00003
272.50 0.00003
273.00 0.00004
273.50 0.00005
274.00 0.00005
274.50 0.00006
275.00 0.00006
275.50 0.00007
276.00 0.00007
276.50 0.00008
277.00 0.00009
277.50 0.00009
278.00 0.00010
278.50 0.00010
279.00 0.00011
279.50 0.00012
280.00 0.00012
280.50 0.00013
281.00 0.00013
281.50 0.00014
282.00 0.00015
282.50 0.00015
283.00 0.00016
283.50 0.00016
284.00 0.00017
284.50 0.00017
285.00 0.00018
285.50 0.00019
286.00 0.00019
286.50 0.00020
287.00 0.00020
287.50 0.00021
288.00 0.00022
288.50 0.00022
289.00 0.00023
289.50 0.00024
290.00 0.00024
290.50 0.00025
291.00 0.00026
291.50 0.00026
292.00 0.00027
292.50 0.00028
293.00 0.00028
293.50 0.00029
294.00 0.00030
294.50 0.00031
295.00 0.00032
295.50 0.00033
296.00 0.00034
296.50 0.00036
297.00 0.00037
297.50 0.00038
298.00 0.00040
298.50 0.00042
299.00 0.00044
299.50 0.00047
300.00 0.00049
300.50 0.00052
301.00 0.00054
301.50 0.00057
302.00 0.00061
302.50 0.00067
303.00 0.00073
303.50 0.00078
304.00 0.00084
304.50 0.00089
305.00 0.00095
305.50 0.00101
306.00 0.00113
306.50 0.00126
307.00 0.00140
307.50 0.00154
308.00 0.00167
308.50 0.00181
309.00 0.00198
309.50 0.00219
310.00 0.00243
310.50 0.00274
311.00 0.00304
311.50 0.00335
312.00 0.00365
312.50 0.00397
313.00 0.00450
313.50 0.00504
314.00 0.00558
314.50 0.00612
315.00 0.00666
315.50 0.00754
316.00 0.00843
316.50 0.00932
317.00 0.01021
317.50 0.01123
318.00 0.01272
318.50 0.01422
319.00 0.01572
319.50 0.01722
320.00 0.01905
320.50 0.02118
321.00 0.02364
321.50 0.02670
322.00 0.02976
322.50 0.03282
323.00 0.03605
323.50 0.04027
324.00 0.04448
324.50 0.04868
325.00 0.05591
325.50 0.06347
326.00 0.07103
326.50 0.07859
327.00 0.08617
327.50 0.09417
328.00 0.10257
328.50 0.11255
329.00 0.12750
329.50 0.14345
330.00 0.16069
330.50 0.17794
331.00 0.19519
331.50 0.21244
332.00 0.23235
332.50 0.25800
333.00 0.28959
333.50 0.31836
334.00 0.34704
334.50 0.37565
335.00 0.40417
335.50 0.43867
336.00 0.47692
336.50 0.51363
337.00 0.55017
337.50 0.58654
338.00 0.62758
338.50 0.66776
339.00 0.70251
339.50 0.73703
340.00 0.77132
340.50 0.80537
341.00 0.84047
341.50 0.87538
342.00 0.91008
342.50 0.94457
343.00 0.97774
343.50 1.00598
344.00 1.03426
344.50 1.06244
345.00 1.09043
345.50 1.11661
346.00 1.14190
346.50 1.16824
347.00 1.19444
347.50 1.21856
348.00 1.23731
348.50 1.25647
349.00 1.27623
349.50 1.29585
350.00 1.31386
350.50 1.32766
351.00 1.34445
351.50 1.36168
352.00 1.37881
352.50 1.38994
353.00 1.39999
353.50 1.41047
354.00 1.42128
354.50 1.43201
355.00 1.43957
355.50 1.44675
356.00 1.45299
356.50 1.45917
357.00 1.46504
357.50 1.46838
358.00 1.47188
358.50 1.47569
359.00 1.47750
359.50 1.47850
360.00 1.47977
