phi[deg] B[T]
0.00 1.47974
0.50 1.47908
1.00 1.47852
1.50 1.47807
2.00 1.47770
2.50 1.47719
3.00 1.47680
3.50 1.47653
4.00 1.47643
4.50 1.47665
5.00 1.47699
5.50 1.47772
6.00 1.47867
6.50 1.47974
7.00 1.48069
7.50 1.48175
8.00 1.48292
8.50 1.48421
9.00 1.48674
9.50 1.48955
10.00 1.49177
10.50 1.49260
11.00 1.49316
11.50 1.49381
12.00 1.49453
12.50 1.49354
13.00 1.49196
13.50 1.49042
14.00 1.48858
14.50 1.48683
15.00 1.48517
15.50 1.48294
16.00 1.48067
16.50 1.47841
17.00 1.47551
17.50 1.47269
18.00 1.46997
18.50 1.46773
19.00 1.46669
19.50 1.46565
20.00 1.46439
20.50 1.45987
21.00 1.45539
21.50 1.45094
22.00 1.44638
22.50 1.44074
23.00 1.43514
23.50 1.42717
24.00 1.41660
24.50 1.40606
25.00 1.39548
25.50 1.38047
26.00 1.36551
26.50 1.35059
27.00 1.33571
27.50 1.32088
28.00 1.30610
28.50 1.29092
29.00 1.27538
29.50 1.26127
30.00 1.24663
30.50 1.23123
31.00 1.21588
31.50 1.20058
32.00 1.18571
32.50 1.17239
33.00 1.15912
33.50 1.14241
34.00 1.12500
34.50 1.10762
35.00 1.09027
35.50 1.07432
36.00 1.05833
36.50 1.03788
37.00 1.01750
37.50 0.99818
38.00 0.97874
38.50 0.95871
39.00 0.93871
39.50 0.91866
40.00 0.89864
40.50 0.87891
41.00 0.85984
41.50 0.84083
42.00 0.82231
42.50 0.80384
43.00 0.78583
43.50 0.76826
44.00 0.75108
44.50 0.73437
45.00 0.71775
45.50 0.70242
46.00 0.68710
46.50 0.67293
47.00 0.65938
47.50 0.64605
48.00 0.63382
48.50 0.62438
49.00 0.61394
49.50 0.60214
50.00 0.59035
50.50 0.58126
51.00 0.57441
51.50 0.56501
52.00 0.55204
52.50 0.53900
53.00 0.52589
53.50 0.51504
54.00 0.50637
54.50 0.49220
55.00 0.47411
55.50 0.45584
56.00 0.43740
56.50 0.41879
57.00 0.40156
57.50 0.38441
58.00 0.35552
58.50 0.33125
59.00 0.30850
59.50 0.28562
60.00 0.26224
60.50 0.23656
61.00 0.21075
61.50 0.18482
62.00 0.16140
62.50 0.14206
63.00 0.12788
63.50 0.11360
64.00 0.09919
64.50 0.08476
65.00 0.07030
65.50 0.06226
66.00 0.05510
66.50 0.04793
67.00 0.04094
67.50 0.03399
68.00 0.03008
68.50 0.02657
69.00 0.02315
69.50 0.01973
70.00 0.01632
70.50 0.01459
71.00 0.01292
71.50 0.01125
72.00 0.00958
72.50 0.00800
73.00 0.00700
73.50 0.00623
74.00 0.00549
74.50 0.00474
75.00 0.00400
75.50 0.00341
76.00 0.00302
76.50 0.00263
77.00 0.00226
77.50 0.00193
78.00 0.00168
78.50 0.00150
79.00 0.00133
79.50 0.00117
80.00 0.00101
80.50 0.00086
81.00 0.00076
81.50 0.00067
82.00 0.00059
82.50 0.00053
83.00 0.00047
83.50 0.00041
84.00 0.00037
84.50 0.00032
85.00 0.00029
85.50 0.00026
86.00 0.00022
86.50 0.00019
87.00 0.00017
87.50 0.00014
88.00 0.00012
88.50 0.00010
89.00 0.00009
89.50 0.00008
90.00 0.00007
90.00 0.00007
90.50 0.00008
91.00 0.00009
91.50 0.00010
92.00 0.00012
92.50 0.00014
93.00 0.00017
93.50 0.00019
94.00 0.00022
94.50 0.00026
95.00 0.00029
95.50 0.00032
96.00 0.00037
96.50 0.00041
97.00 0.00047
97.50 0.00053
98.00 0.00059
98.50 0.00067
99.00 0.00076
99.50 0.00086
100.00 0.00101
100.50 0.00117
101.00 0.00133
101.50 0.00150
102.00 0.00168
102.50 0.00193
103.00 0.00226
103.50 0.00263
104.00 0.00302
104.50 0.00341
105.00 0.00400
105.50 0.00474
106.00 0.00549
106.50 0.00623
107.00 0.00700
107.50 0.00800
108.00 0.00958
108.50 0.01125
109.00 0.01292
109.50 0.01459
110.00 0.01632
110.50 0.01973
111.00 0.02315
111.50 0.02657
112.00 0.03008
112.50 0.03399
113.00 0.04094
113.50 0.04793
114.00 0.05510
114.50 0.06226
115.00 0.07030
115.50 0.08476
116.00 0.09919
116.50 0.11360
117.00 0.12788
117.50 0.14206
118.00 0.16140
118.50 0.18482
119.00 0.21075
119.50 0.23656
120.00 0.26224
120.50 0.28562
121.00 0.30850
121.50 0.33125
122.00 0.35552
122.50 0.38441
123.00 0.40156
123.50 0.41879
124.00 0.43740
124.50 0.45584
125.00 0.47411
125.50 0.49220
126.00 0.50637
126.50 0.51504
127.00 0.52589
127.50 0.53900
128.00 0.55204
128.50 0.56501
129.00 0.57441
129.50 0.58126
130.00 0.59035
130.50 0.60214
131.00 0.61394
131.50 0.62438
132.00 0.63382
132.50 0.64605
133.00 0.65938
133.50 0.67293
134.00 0.68710
134.50 0.70242
135.00 0.71775
135.50 0.73437
136.00 0.75108
136.50 0.76826
137.00 0.78583
137.50 0.80384
138.00 0.82231
138.50 0.84083
139.00 0.85984
139.50 0.87891
140.00 0.89864
140.50 0.91866
141.00 0.93871
141.50 0.95871
142.00 0.97874
142.50 0.99818
143.00 1.01750
143.50 1.03788
144.00 1.05833
144.50 1.07432
145.00 1.09027
145.50 1.10762
146.00 1.12500
146.50 1.14241
147.00 1.15912
147.50 1.17239
148.00 1.18571
148.50 1.20058
149.00 1.21588
149.50 1.23123
150.00 1.24663
150.50 1.26127
151.00 1.27538
151.50 1.29092
152.00 1.30610
152.50 1.32088
153.00 1.33571
153.50 1.35059
154.00 1.36551
154.50 1.38047
155.00 1.39548
155.50 1.40606
156.00 1.41660
156.50 1.42717
157.00 1.43514
157.50 1.44074
158.00 1.44638
158.50 1.45094
159.00 1.45539
159.50 1.45987
160.00 1.46439
160.50 1.46565
161.00 1.46669
161.50 1.46773
162.00 1.46997
162.50 1.47269
163.00 1.47551
163.50 1.47841
164.00 1.48067
164.50 1.48294
165.00 1.48517
165.50 1.48683
166.00 1.48858
166.50 1.49042
167.00 1.49196
167.50 1.49354
168.00 1.49453
168.50 1.49381
169.00 1.49316
169.50 1.49260
170.00 1.49177
170.50 1.48955
171.00 1.48674
171.50 1.48421
172.00 1.48292
172.50 1.48175
173.00 1.48069
173.50 1.47974
174.00 1.47867
174.50 1.47772
175.00 1.47699
175.50 1.47665
176.00 1.47643
176.50 1.47653
177.00 1.47680
177.50 1.47719
178.00 1.47770
178.50 1.47807
179.00 1.47852
179.50 1.47908
180.00 1.47974
180.00 1.47974
180.50 1.47908
181.00 1.47852
181.50 1.47807
182.00 1.47770
182.50 1.47719
183.00 1.47680
183.50 1.47653
184.00 1.47643
184.50 1.47665
185.00 1.47699
185.50 1.47772
186.00 1.47867
186.50 1.47974
187.00 1.48069
187.50 1.48175
188.00 1.48292
188.50 1.48421
189.00 1.48674
189.50 1.48955
190.00 1.49177
190.50 1.49260
191.00 1.49316
191.50 1.49381
192.00 1.49453
192.50 1.49354
193.00 1.49196
193.50 1.49042
194.00 1.48858
194.50 1.48683
195.00 1.48517
195.50 1.48294
196.00 1.48067
196.50 1.47841
197.00 1.47551
197.50 1.47269
198.00 1.46997
198.50 1.46773
199.00 1.46669
199.50 1.46565
200.00 1.46439
200.50 1.45987
201.00 1.45539
201.50 1.45094
202.00 1.44638
202.50 1.44074
203.00 1.43514
203.50 1.42717
204.00 1.41660
204.50 1.40606
205.00 1.39548
205.50 1.38047
206.00 1.36551
206.50 1.35059
207.00 1.33571
207.50 1.32088
208.00 1.30610
208.50 1.29092
209.00 1.27538
209.50 1.26127
210.00 1.24663
210.50 1.23123
211.00 1.21588
211.50 1.20058
212.00 1.18571
212.50 1.17239
213.00 1.15912
213.50 1.14241
214.00 1.12500
214.50 1.10762
215.00 1.09027
215.50 1.07432
216.00 1.05833
216.50 1.03788
217.00 1.01750
217.50 0.99818
218.00 0.97874
218.50 0.95871
219.00 0.93871
219.50 0.91866
220.00 0.89864
220.50 0.87891
221.00 0.85984
221.50 0.84083
222.00 0.82231
222.50 0.80384
223.00 0.78583
223.50 0.76826
224.00 0.75108
224.50 0.73437
225.00 0.71775
225.50 0.70242
226.00 0.68710
226.50 0.67293
227.00 0.65938
227.50 0.64605
228.00 0.63382
228.50 0.62438
229.00 0.61394
229.50 0.60214
230.00 0.59035
230.50 0.58126
231.00 0.57441
231.50 0.56501
232.00 0.55204
232.50 0.53900
233.00 0.52589
233.50 0.51504
234.00 0.50637
234.50 0.49220
235.00 0.47411
235.50 0.45584
236.00 0.43740
236.50 0.41879
237.00 0.40156
237.50 0.38441
238.00 0.35552
238.50 0.33125
239.00 0.30850
239.50 0.28562
240.00 0.26224
240.50 0.23656
241.00 0.21075
241.50 0.18482
242.00 0.16140
242.50 0.14206
243.00 0.12788
243.50 0.11360
244.00 0.09919
244.50 0.08476
245.00 0.07030
245.50 0.06226
246.00 0.05510
246.50 0.04793
247.00 0.04094
247.50 0.03399
248.00 0.03008
248.50 0.02657
249.00 0.02315
249.50 0.01973
250.00 0.01632
250.50 0.01459
251.00 0.01292
251.50 0.01125
252.00 0.00958
252.50 0.00800
253.00 0.00700
253.50 0.00623
254.00 0.00549
254.50 0.00474
255.00 0.00400
255.50 0.00341
256.00 0.00302
256.50 0.00263
257.00 0.00226
257.50 0.00193
258.00 0.00168
258.50 0.00150
259.00 0.00133
259.50 0.00117
260.00 0.00101
260.50 0.00086
261.00 0.00076
261.50 0.00067
262.00 0.00059
262.50 0.00053
263.00 0.00047
263.50 0.00041
264.00 0.00037
264.50 0.00032
265.00 0.00029
265.50 0.00026
266.00 0.00022
266.50 0.00019
267.00 0.00017
267.50 0.00014
268.00 0.00012
268.50 0.00010
269.00 0.00009
269.50 0.00008
270.00 0.00007
270.00 0.00007
270.50 0.00008
271.00 0.00009
271.50 0.00010
272.00 0.00012
272.50 0.00014
273.00 0.00017
273.50 0.00019
274.00 0.00022
274.50 0.00026
275.00 0.00029
275.50 0.00032
276.00 0.00037
276.50 0.00041
277.00 0.00047
277.50 0.00053
278.00 0.00059
278.50 0.00067
279.00 0.00076
279.50 0.00086
280.00 0.00101
280.50 0.00117
281.00 0.00133
281.50 0.00150
282.00 0.00168
282.50 0.00193
283.00 0.00226
283.50 0.00263
284.00 0.00302
284.50 0.00341
285.00 0.00400
285.50 0.00474
286.00 0.00549
286.50 0.00623
287.00 0.00700
287.50 0.00800
288.00 0.00958
288.50 0.01125
289.00 0.01292
289.50 0.01459
290.00 0.01632
290.50 0.01973
291.00 0.02315
291.50 0.02657
292.00 0.03008
292.50 0.03399
293.00 0.04094
293.50 0.04793
294.00 0.05510
294.50 0.06226
295.00 0.07030
295.50 0.08476
296.00 0.09919
296.50 0.11360
297.00 0.12788
297.50 0.14206
298.00 0.16140
298.50 0.18482
299.00 0.21075
299.50 0.23656
300.00 0.26224
300.50 0.28562
301.00 0.30850
301.50 0.33125
302.00 0.35552
302.50 0.38441
303.00 0.40156
303.50 0.41879
304.00 0.43740
304.50 0.45584
305.00 0.47411
305.50 0.49220
306.00 0.50637
306.50 0.51504
307.00 0.52589
307.50 0.53900
308.00 0.55204
308.50 0.56501
309.00 0.57441
309.50 0.58126
310.00 0.59035
310.50 0.60214
311.00 0.61394
311.50 0.62438
312.00 0.63382
312.50 0.64605
313.00 0.65938
313.50 0.67293
314.00 0.68710
314.50 0.70242
315.00 0.71775
315.50 0.73437
316.00 0.75108
316.50 0.76826
317.00 0.78583
317.50 0.80384
318.00 0.82231
318.50 0.84083
319.00 0.85984
319.50 0.87891
320.00 0.89864
320.50 0.91866
321.00 0.93871
321.50 0.95871
322.00 0.97874
322.50 0.99818
323.00 1.01750
323.50 1.03788
324.00 1.05833
324.50 1.07432
325.00 1.09027
325.50 1.10762
326.00 1.12500
326.50 1.14241
327.00 1.15912
327.50 1.17239
328.00 1.18571
328.50 1.20058
329.00 1.21588
329.50 1.23123
330.00 1.24663
330.50 1.26127
331.00 1.27538
331.50 1.29092
332.00 1.30610
332.50 1.32088
333.00 1.33571
333.50 1.35059
334.00 1.36551
334.50 1.38047
335.00 1.39548
335.50 1.40606
336.00 1.41660
336.50 1.42717
337.00 1.43514
337.50 1.44074
338.00 1.44638
338.50 1.45094
339.00 1.45539
339.50 1.45987
340.00 1.46439
340.50 1.46565
341.00 1.46669
341.50 1.46773
342.00 1.46997
342.50 1.47269
343.00 1.47551
343.50 1.47841
344.00 1.48067
344.50 1.48294
345.00 1.48517
345.50 1.48683
346.00 1.48858
346.50 1.49042
347.00 1.49196
347.50 1.49354
348.00 1.49453
348.50 1.49381
349.00 1.49316
349.50 1.49260
350.00 1.49177
350.50 1.48955
351.00 1.48674
351.50 1.48421
352.00 1.48292
352.50 1.48175
353.00 1.48069
353.50 1.47974
354.00 1.47867
354.50 1.47772
355.00 1.47699
355.50 1.47665
356.00 1.47643
356.50 1.47653
357.00 1.47680
357.50 1.47719
358.00 1.47770
358.50 1.47807
359.00 1.47852
359.50 1.47908
360.00 1.47974
