phi[deg] B[T]
0.00 1.24960
0.50 1.24907
1.00 1.24864
1.50 1.24830
2.00 1.24796
2.50 1.24752
3.00 1.24718
3.50 1.24694
4.00 1.24680
4.50 1.24681
5.00 1.24692
5.50 1.24708
6.00 1.24732
6.50 1.24767
7.00 1.24815
7.50 1.24873
8.00 1.24941
8.50 1.25019
9.00 1.25159
9.50 1.25308
10.00 1.25450
10.50 1.25547
11.00 1.25631
11.50 1.25724
12.00 1.25825
12.50 1.25874
13.00 1.25911
13.50 1.25950
14.00 1.25958
14.50 1.25973
15.00 1.25997
15.50 1.26026
16.00 1.26060
16.50 1.26098
17.00 1.26067
17.50 1.26043
18.00 1.26028
18.50 1.26039
19.00 1.26164
19.50 1.26298
20.00 1.26441
20.50 1.26312
21.00 1.26178
21.50 1.26049
22.00 1.25924
22.50 1.25765
23.00 1.25611
23.50 1.25264
24.00 1.24641
24.50 1.24019
25.00 1.23398
25.50 1.22476
26.00 1.21535
26.50 1.20535
27.00 1.19419
27.50 1.18307
28.00 1.17196
28.50 1.16067
29.00 1.14895
29.50 1.13700
30.00 1.12458
30.50 1.11170
31.00 1.09885
31.50 1.08603
32.00 1.07324
32.50 1.06148
33.00 1.04974
33.50 1.03549
34.00 1.02030
34.50 1.00512
35.00 0.98995
35.50 0.97646
36.00 0.96378
36.50 0.94838
37.00 0.93174
37.50 0.91415
38.00 0.89613
38.50 0.87811
39.00 0.86044
39.50 0.84285
40.00 0.82336
40.50 0.80379
41.00 0.78396
41.50 0.76381
42.00 0.74361
42.50 0.72319
43.00 0.70192
43.50 0.68101
44.00 0.65938
44.50 0.63696
45.00 0.61462
45.50 0.59241
46.00 0.57041
46.50 0.54835
47.00 0.52622
47.50 0.50483
48.00 0.48484
48.50 0.46493
49.00 0.44698
49.50 0.43102
50.00 0.41509
50.50 0.39953
51.00 0.38443
51.50 0.37467
52.00 0.36422
52.50 0.35220
53.00 0.33933
53.50 0.32784
54.00 0.31937
54.50 0.31086
55.00 0.29853
55.50 0.28459
56.00 0.27058
56.50 0.25718
57.00 0.24775
57.50 0.23572
58.00 0.21943
58.50 0.20441
59.00 0.19001
59.50 0.17552
60.00 0.16006
60.50 0.14405
61.00 0.12797
61.50 0.11354
62.00 0.10207
62.50 0.09139
63.00 0.08065
63.50 0.06957
64.00 0.05891
64.50 0.05242
65.00 0.04617
65.50 0.04003
66.00 0.03468
66.50 0.03105
67.00 0.02741
67.50 0.02376
68.00 0.02011
68.50 0.01762
69.00 0.01589
69.50 0.01414
70.00 0.01239
70.50 0.01063
71.00 0.00888
71.50 0.00791
72.00 0.00723
72.50 0.00655
73.00 0.00587
73.50 0.00518
74.00 0.00450
74.50 0.00385
75.00 0.00356
75.50 0.00328
76.00 0.00299
76.50 0.00270
77.00 0.00244
77.50 0.00228
78.00 0.00211
78.50 0.00196
79.00 0.00183
79.50 0.00173
80.00 0.00163
80.50 0.00152
81.00 0.00142
81.50 0.00133
82.00 0.00124
82.50 0.00115
83.00 0.00107
83.50 0.00099
84.00 0.00092
84.50 0.00084
85.00 0.00077
85.50 0.00069
86.00 0.00061
86.50 0.00054
87.00 0.00046
87.50 0.00038
88.00 0.00030
88.50 0.00024
89.00 0.00021
89.50 0.00019
90.00 0.00016
90.00 0.00016
90.50 0.00019
91.00 0.00021
91.50 0.00024
92.00 0.00030
92.50 0.00038
93.00 0.00046
93.50 0.00054
94.00 0.00061
94.50 0.00069
95.00 0.00077
95.50 0.00084
96.00 0.00092
96.50 0.00099
97.00 0.00107
97.50 0.00115
98.00 0.00124
98.50 0.00133
99.00 0.00142
99.50 0.00152
100.00 0.00163
100.50 0.00173
101.00 0.00183
101.50 0.00196
102.00 0.00211
102.50 0.00228
103.00 0.00244
103.50 0.00270
104.00 0.00299
104.50 0.00328
105.00 0.00356
105.50 0.00385
106.00 0.00450
106.50 0.00518
107.00 0.00587
107.50 0.00655
108.00 0.00723
108.50 0.00791
109.00 0.00888
109.50 0.01063
110.00 0.01239
110.50 0.01414
111.00 0.01589
111.50 0.01762
112.00 0.02011
112.50 0.02376
113.00 0.02741
113.50 0.03105
114.00 0.03468
114.50 0.04003
115.00 0.04617
115.50 0.05242
116.00 0.05891
116.50 0.06957
117.00 0.08065
117.50 0.09139
118.00 0.10207
118.50 0.11354
119.00 0.12797
119.50 0.14405
120.00 0.16006
120.50 0.17552
121.00 0.19001
121.50 0.20441
122.00 0.21943
122.50 0.23572
123.00 0.24775
123.50 0.25718
124.00 0.27058
124.50 0.28459
125.00 0.29853
125.50 0.31086
126.00 0.31937
126.50 0.32784
127.00 0.33933
127.50 0.35220
128.00 0.36422
128.50 0.37467
129.00 0.38443
129.50 0.39953
130.00 0.41509
130.50 0.43102
131.00 0.44698
131.50 0.46493
132.00 0.48484
132.50 0.50483
133.00 0.52622
133.50 0.54835
134.00 0.57041
134.50 0.59241
135.00 0.61462
135.50 0.63696
136.00 0.65938
136.50 0.68101
137.00 0.70192
137.50 0.72319
138.00 0.74361
138.50 0.76381
139.00 0.78396
139.50 0.80379
140.00 0.82336
140.50 0.84285
141.00 0.86044
141.50 0.87811
142.00 0.89613
142.50 0.91415
143.00 0.93174
143.50 0.94838
144.00 0.96378
144.50 0.97646
145.00 0.98995
145.50 1.00512
146.00 1.02030
146.50 1.03549
147.00 1.04974
147.50 1.06148
148.00 1.07324
148.50 1.08603
149.00 1.09885
149.50 1.11170
150.00 1.12458
150.50 1.13700
151.00 1.14895
151.50 1.16067
152.00 1.17196
152.50 1.18307
153.00 1.19419
153.50 1.20535
154.00 1.21535
154.50 1.22476
155.00 1.23398
155.50 1.24019
156.00 1.24641
156.50 1.25264
157.00 1.25611
157.50 1.25765
158.00 1.25924
158.50 1.26049
159.00 1.26178
159.50 1.26312
160.00 1.26441
160.50 1.26298
161.00 1.26164
161.50 1.26039
162.00 1.26028
162.50 1.26043
163.00 1.26067
163.50 1.26098
164.00 1.26060
164.50 1.26026
165.00 1.25997
165.50 1.25973
166.00 1.25958
166.50 1.25950
167.00 1.25911
167.50 1.25874
168.00 1.25825
168.50 1.25724
169.00 1.25631
169.50 1.25547
170.00 1.25450
170.50 1.25308
171.00 1.25159
171.50 1.25019
172.00 1.24941
172.50 1.24873
173.00 1.24815
173.50 1.24767
174.00 1.24732
174.50 1.24708
175.00 1.24692
175.50 1.24681
176.00 1.24680
176.50 1.24694
177.00 1.24718
177.50 1.24752
178.00 1.24796
178.50 1.24830
179.00 1.24864
179.50 1.24907
180.00 1.24960
180.00 1.24960
180.50 1.24907
181.00 1.24864
181.50 1.24830
182.00 1.24796
182.50 1.24752
183.00 1.24718
183.50 1.24694
184.00 1.24680
184.50 1.24681
185.00 1.24692
185.50 1.24708
186.00 1.24732
186.50 1.24767
187.00 1.24815
187.50 1.24873
188.00 1.24941
188.50 1.25019
189.00 1.25159
189.50 1.25308
190.00 1.25450
190.50 1.25547
191.00 1.25631
191.50 1.25724
192.00 1.25825
192.50 1.25874
193.00 1.25911
193.50 1.25950
194.00 1.25958
194.50 1.25973
195.00 1.25997
195.50 1.26026
196.00 1.26060
196.50 1.26098
197.00 1.26067
197.50 1.26043
198.00 1.26028
198.50 1.26039
199.00 1.26164
199.50 1.26298
200.00 1.26441
200.50 1.26312
201.00 1.26178
201.50 1.26049
202.00 1.25924
202.50 1.25765
203.00 1.25611
203.50 1.25264
204.00 1.24641
204.50 1.24019
205.00 1.23398
205.50 1.22476
206.00 1.21535
206.50 1.20535
207.00 1.19419
207.50 1.18307
208.00 1.17196
208.50 1.16067
209.00 1.14895
209.50 1.13700
210.00 1.12458
210.50 1.11170
211.00 1.09885
211.50 1.08603
212.00 1.07324
212.50 1.06148
213.00 1.04974
213.50 1.03549
214.00 1.02030
214.50 1.00512
215.00 0.98995
215.50 0.97646
216.00 0.96378
216.50 0.94838
217.00 0.93174
217.50 0.91415
218.00 0.89613
218.50 0.87811
219.00 0.86044
219.50 0.84285
220.00 0.82336
220.50 0.80379
221.00 0.78396
221.50 0.76381
222.00 0.74361
222.50 0.72319
223.00 0.70192
223.50 0.68101
224.00 0.65938
224.50 0.63696
225.00 0.61462
225.50 0.59241
226.00 0.57041
226.50 0.54835
227.00 0.52622
227.50 0.50483
228.00 0.48484
228.50 0.46493
229.00 0.44698
229.50 0.43102
230.00 0.41509
230.50 0.39953
231.00 0.38443
231.50 0.37467
232.00 0.36422
232.50 0.35220
233.00 0.33933
233.50 0.32784
234.00 0.31937
234.50 0.31086
235.00 0.29853
235.50 0.28459
236.00 0.27058
236.50 0.25718
237.00 0.24775
237.50 0.23572
238.00 0.21943
238.50 0.20441
239.00 0.19001
239.50 0.17552
240.00 0.16006
240.50 0.14405
241.00 0.12797
241.50 0.11354
242.00 0.10207
242.50 0.09139
243.00 0.08065
243.50 0.06957
244.00 0.05891
244.50 0.05242
245.00 0.04617
245.50 0.04003
246.00 0.03468
246.50 0.03105
247.00 0.02741
247.50 0.02376
248.00 0.02011
248.50 0.01762
249.00 0.01589
249.50 0.01414
250.00 0.01239
250.50 0.01063
251.00 0.00888
251.50 0.00791
252.00 0.00723
252.50 0.00655
253.00 0.00587
253.50 0.00518
254.00 0.00450
254.50 0.00385
255.00 0.00356
255.50 0.00328
256.00 0.00299
256.50 0.00270
257.00 0.00244
257.50 0.00228
258.00 0.00211
258.50 0.00196
259.00 0.00183
259.50 0.00173
260.00 0.00163
260.50 0.00152
261.00 0.00142
261.50 0.00133
262.00 0.00124
262.50 0.00115
263.00 0.00107
263.50 0.00099
264.00 0.00092
264.50 0.00084
265.00 0.00077
265.50 0.00069
266.00 0.00061
266.50 0.00054
267.00 0.00046
267.50 0.00038
268.00 0.00030
268.50 0.00024
269.00 0.00021
269.50 0.00019
270.00 0.00016
270.00 0.00016
270.50 0.00019
271.00 0.00021
271.50 0.00024
272.00 0.00030
272.50 0.00038
273.00 0.00046
273.50 0.00054
274.00 0.00061
274.50 0.00069
275.00 0.00077
275.50 0.00084
276.00 0.00092
276.50 0.00099
277.00 0.00107
277.50 0.00115
278.00 0.00124
278.50 0.00133
279.00 0.00142
279.50 0.00152
280.00 0.00163
280.50 0.00173
281.00 0.00183
281.50 0.00196
282.00 0.00211
282.50 0.00228
283.00 0.00244
283.50 0.00270
284.00 0.00299
284.50 0.00328
285.00 0.00356
285.50 0.00385
286.00 0.00450
286.50 0.00518
287.00 0.00587
287.50 0.00655
288.00 0.00723
288.50 0.00791
289.00 0.00888
289.50 0.01063
290.00 0.01239
290.50 0.01414
291.00 0.01589
291.50 0.01762
292.00 0.02011
292.50 0.02376
293.00 0.02741
293.50 0.03105
294.00 0.03468
294.50 0.04003
295.00 0.04617
295.50 0.05242
296.00 0.05891
296.50 0.06957
297.00 0.08065
297.50 0.09139
298.00 0.10207
298.50 0.11354
299.00 0.12797
299.50 0.14405
300.00 0.16006
300.50 0.17552
301.00 0.19001
301.50 0.20441
302.00 0.21943
302.50 0.23572
303.00 0.24775
303.50 0.25718
304.00 0.27058
304.50 0.28459
305.00 0.29853
305.50 0.31086
306.00 0.31937
306.50 0.32784
307.00 0.33933
307.50 0.35220
308.00 0.36422
308.50 0.37467
309.00 0.38443
309.50 0.39953
310.00 0.41509
310.50 0.43102
311.00 0.44698
311.50 0.46493
312.00 0.48484
312.50 0.50483
313.00 0.52622
313.50 0.54835
314.00 0.57041
314.50 0.59241
315.00 0.61462
315.50 0.63696
316.00 0.65938
316.50 0.68101
317.00 0.70192
317.50 0.72319
318.00 0.74361
318.50 0.76381
319.00 0.78396
319.50 0.80379
320.00 0.82336
320.50 0.84285
321.00 0.86044
321.50 0.87811
322.00 0.89613
322.50 0.91415
323.00 0.93174
323.50 0.94838
324.00 0.96378
324.50 0.97646
325.00 0.98995
325.50 1.00512
326.00 1.02030
326.50 1.03549
327.00 1.04974
327.50 1.06148
328.00 1.07324
328.50 1.08603
329.00 1.09885
329.50 1.11170
330.00 1.12458
330.50 1.13700
331.00 1.14895
331.50 1.16067
332.00 1.17196
332.50 1.18307
333.00 1.19419
333.50 1.20535
334.00 1.21535
334.50 1.22476
335.00 1.23398
335.50 1.24019
336.00 1.24641
336.50 1.25264
337.00 1.25611
337.50 1.25765
338.00 1.25924
338.50 1.26049
339.00 1.26178
339.50 1.26312
340.00 1.26441
340.50 1.26298
341.00 1.26164
341.50 1.26039
342.00 1.26028
342.50 1.26043
343.00 1.26067
343.50 1.26098
344.00 1.26060
344.50 1.26026
345.00 1.25997
345.50 1.25973
346.00 1.25958
346.50 1.25950
347.00 1.25911
347.50 1.25874
348.00 1.25825
348.50 1.25724
349.00 1.25631
349.50 1.25547
350.00 1.25450
350.50 1.25308
351.00 1.25159
351.50 1.25019
352.00 1.24941
352.50 1.24873
353.00 1.24815
353.50 1.24767
354.00 1.24732
354.50 1.24708
355.00 1.24692
355.50 1.24681
356.00 1.24680
356.50 1.24694
357.00 1.24718
357.50 1.24752
358.00 1.24796
358.50 1.24830
359.00 1.24864
359.50 1.24907
360.00 1.24960
