phi[deg] B[T]
0.00 1.39274
0.50 1.39200
1.00 1.39136
1.50 1.39085
2.00 1.38999
2.50 1.38936
3.00 1.38885
3.50 1.38777
4.00 1.38683
4.50 1.38663
5.00 1.38653
5.50 1.38661
6.00 1.38681
6.50 1.38716
7.00 1.38770
7.50 1.38839
8.00 1.38990
8.50 1.39152
9.00 1.39314
9.50 1.39410
10.00 1.39516
10.50 1.39667
11.00 1.39837
11.50 1.40018
12.00 1.40083
12.50 1.40132
13.00 1.40151
13.50 1.40128
14.00 1.40114
14.50 1.40092
15.00 1.40060
15.50 1.40037
16.00 1.40022
16.50 1.40014
17.00 1.40051
17.50 1.40125
18.00 1.40140
18.50 1.40109
19.00 1.40086
19.50 1.40153
20.00 1.40281
20.50 1.40417
21.00 1.40313
21.50 1.40080
22.00 1.39867
22.50 1.39701
23.00 1.39540
23.50 1.39201
24.00 1.38525
24.50 1.37850
25.00 1.36912
25.50 1.35872
26.00 1.34836
26.50 1.33719
27.00 1.32598
27.50 1.31435
28.00 1.30167
28.50 1.28905
29.00 1.27603
29.50 1.26263
30.00 1.24927
30.50 1.23700
31.00 1.22502
31.50 1.21299
32.00 1.19787
32.50 1.18278
33.00 1.16773
33.50 1.15486
34.00 1.14260
34.50 1.12788
35.00 1.11028
35.50 1.09203
36.00 1.07376
36.50 1.05531
37.00 1.03465
37.50 1.01399
38.00 0.99120
38.50 0.96814
39.00 0.94507
39.50 0.92248
40.00 0.89987
40.50 0.87554
41.00 0.85115
41.50 0.82673
42.00 0.80246
42.50 0.77808
43.00 0.75368
43.50 0.72920
44.00 0.70492
44.50 0.68033
45.00 0.65577
45.50 0.63148
46.00 0.60805
46.50 0.58555
47.00 0.56313
47.50 0.54347
48.00 0.52414
48.50 0.50685
49.00 0.49140
49.50 0.47613
50.00 0.46606
50.50 0.45698
51.00 0.44536
51.50 0.43376
52.00 0.42218
52.50 0.41451
53.00 0.40967
53.50 0.40367
54.00 0.39226
54.50 0.37961
55.00 0.36685
55.50 0.35401
56.00 0.34201
56.50 0.32990
57.00 0.31465
57.50 0.29719
58.00 0.27855
58.50 0.25663
59.00 0.23459
59.50 0.21243
60.00 0.19359
60.50 0.17580
61.00 0.15737
61.50 0.13880
62.00 0.12017
62.50 0.10249
63.00 0.09162
63.50 0.08071
64.00 0.06850
64.50 0.05628
65.00 0.04926
65.50 0.04354
66.00 0.03781
66.50 0.03208
67.00 0.02626
67.50 0.02310
68.00 0.02084
68.50 0.01858
69.00 0.01632
69.50 0.01406
70.00 0.01181
70.50 0.00956
71.00 0.00802
71.50 0.00722
72.00 0.00642
72.50 0.00562
73.00 0.00482
73.50 0.00415
74.00 0.00374
74.50 0.00334
75.00 0.00297
75.50 0.00269
76.00 0.00246
76.50 0.00223
77.00 0.00201
77.50 0.00186
78.00 0.00174
78.50 0.00161
79.00 0.00148
79.50 0.00139
80.00 0.00131
80.50 0.00123
81.00 0.00116
81.50 0.00110
82.00 0.00104
82.50 0.00098
83.00 0.00094
83.50 0.00090
84.00 0.00086
84.50 0.00082
85.00 0.00078
85.50 0.00075
86.00 0.00072
86.50 0.00070
87.00 0.00067
87.50 0.00065
88.00 0.00064
88.50 0.00062
89.00 0.00062
89.50 0.00061
90.00 0.00061
90.00 0.00061
90.50 0.00061
91.00 0.00062
91.50 0.00062
92.00 0.00064
92.50 0.00065
93.00 0.00067
93.50 0.00070
94.00 0.00072
94.50 0.00075
95.00 0.00078
95.50 0.00082
96.00 0.00086
96.50 0.00090
97.00 0.00094
97.50 0.00098
98.00 0.00104
98.50 0.00110
99.00 0.00116
99.50 0.00123
100.00 0.00131
100.50 0.00139
101.00 0.00148
101.50 0.00161
102.00 0.00174
102.50 0.00186
103.00 0.00201
103.50 0.00223
104.00 0.00246
104.50 0.00269
105.00 0.00297
105.50 0.00334
106.00 0.00374
106.50 0.00415
107.00 0.00482
107.50 0.00562
108.00 0.00642
108.50 0.00722
109.00 0.00802
109.50 0.00956
110.00 0.01181
110.50 0.01406
111.00 0.01632
111.50 0.01858
112.00 0.02084
112.50 0.02310
113.00 0.02626
113.50 0.03208
114.00 0.03781
114.50 0.04354
115.00 0.04926
115.50 0.05628
116.00 0.06850
116.50 0.08071
117.00 0.09162
117.50 0.10249
118.00 0.12017
118.50 0.13880
119.00 0.15737
119.50 0.17580
120.00 0.19359
120.50 0.21243
121.00 0.23459
121.50 0.25663
122.00 0.27855
122.50 0.29719
123.00 0.31465
123.50 0.32990
124.00 0.34201
124.50 0.35401
125.00 0.36685
125.50 0.37961
126.00 0.39226
126.50 0.40367
127.00 0.40967
127.50 0.41451
128.00 0.42218
128.50 0.43376
129.00 0.44536
129.50 0.45698
130.00 0.46606
130.50 0.47613
131.00 0.49140
131.50 0.50685
132.00 0.52414
132.50 0.54347
133.00 0.56313
133.50 0.58555
134.00 0.60805
134.50 0.63148
135.00 0.65577
135.50 0.68033
136.00 0.70492
136.50 0.72920
137.00 0.75368
137.50 0.77808
138.00 0.80246
138.50 0.82673
139.00 0.85115
139.50 0.87554
140.00 0.89987
140.50 0.92248
141.00 0.94507
141.50 0.96814
142.00 0.99120
142.50 1.01399
143.00 1.03465
143.50 1.05531
144.00 1.07376
144.50 1.09203
145.00 1.11028
145.50 1.12788
146.00 1.14260
146.50 1.15486
147.00 1.16773
147.50 1.18278
148.00 1.19787
148.50 1.21299
149.00 1.22502
149.50 1.23700
150.00 1.24927
150.50 1.26263
151.00 1.27603
151.50 1.28905
152.00 1.30167
152.50 1.31435
153.00 1.32598
153.50 1.33719
154.00 1.34836
154.50 1.35872
155.00 1.36912
155.50 1.37850
156.00 1.38525
156.50 1.39201
157.00 1.39540
157.50 1.39701
158.00 1.39867
158.50 1.40080
159.00 1.40313
159.50 1.40417
160.00 1.40281
160.50 1.40153
161.00 1.40086
161.50 1.40109
162.00 1.40140
162.50 1.40125
163.00 1.40051
163.50 1.40014
164.00 1.40022
164.50 1.40037
165.00 1.40060
165.50 1.40092
166.00 1.40114
166.50 1.40128
167.00 1.40151
167.50 1.40132
168.00 1.40083
168.50 1.40018
169.00 1.39837
169.50 1.39667
170.00 1.39516
170.50 1.39410
171.00 1.39314
171.50 1.39152
172.00 1.38990
172.50 1.38839
173.00 1.38770
173.50 1.38716
174.00 1.38681
174.50 1.38661
175.00 1.38653
175.50 1.38663
176.00 1.38683
176.50 1.38777
177.00 1.38885
177.50 1.38936
178.00 1.38999
178.50 1.39085
179.00 1.39136
179.50 1.39200
180.00 1.39274
180.00 1.39274
180.50 1.39200
181.00 1.39136
181.50 1.39085
182.00 1.38999
182.50 1.38936
183.00 1.38885
183.50 1.38777
184.00 1.38683
184.50 1.38663
185.00 1.38653
185.50 1.38661
186.00 1.38681
186.50 1.38716
187.00 1.38770
187.50 1.38839
188.00 1.38990
188.50 1.39152
189.00 1.39314
189.50 1.39410
190.00 1.39516
190.50 1.39667
191.00 1.39837
191.50 1.40018
192.00 1.40083
192.50 1.40132
193.00 1.40151
193.50 1.40128
194.00 1.40114
194.50 1.40092
195.00 1.40060
195.50 1.40037
196.00 1.40022
196.50 1.40014
197.00 1.40051
197.50 1.40125
198.00 1.40140
198.50 1.40109
199.00 1.40086
199.50 1.40153
200.00 1.40281
200.50 1.40417
201.00 1.40313
201.50 1.40080
202.00 1.39867
202.50 1.39701
203.00 1.39540
203.50 1.39201
204.00 1.38525
204.50 1.37850
205.00 1.36912
205.50 1.35872
206.00 1.34836
206.50 1.33719
207.00 1.32598
207.50 1.31435
208.00 1.30167
208.50 1.28905
209.00 1.27603
209.50 1.26263
210.00 1.24927
210.50 1.23700
211.00 1.22502
211.50 1.21299
212.00 1.19787
212.50 1.18278
213.00 1.16773
213.50 1.15486
214.00 1.14260
214.50 1.12788
215.00 1.11028
215.50 1.09203
216.00 1.07376
216.50 1.05531
217.00 1.03465
217.50 1.01399
218.00 0.99120
218.50 0.96814
219.00 0.94507
219.50 0.92248
220.00 0.89987
220.50 0.87554
221.00 0.85115
221.50 0.82673
222.00 0.80246
222.50 0.77808
223.00 0.75368
223.50 0.72920
224.00 0.70492
224.50 0.68033
225.00 0.65577
225.50 0.63148
226.00 0.60805
226.50 0.58555
227.00 0.56313
227.50 0.54347
228.00 0.52414
228.50 0.50685
229.00 0.49140
229.50 0.47613
230.00 0.46606
230.50 0.45698
231.00 0.44536
231.50 0.43376
232.00 0.42218
232.50 0.41451
233.00 0.40967
233.50 0.40367
234.00 0.39226
234.50 0.37961
235.00 0.36685
235.50 0.35401
236.00 0.34201
236.50 0.32990
237.00 0.31465
237.50 0.29719
238.00 0.27855
238.50 0.25663
239.00 0.23459
239.50 0.21243
240.00 0.19359
240.50 0.17580
241.00 0.15737
241.50 0.13880
242.00 0.12017
242.50 0.10249
243.00 0.09162
243.50 0.08071
244.00 0.06850
244.50 0.05628
245.00 0.04926
245.50 0.04354
246.00 0.03781
246.50 0.03208
247.00 0.02626
247.50 0.02310
248.00 0.02084
248.50 0.01858
249.00 0.01632
249.50 0.01406
250.00 0.01181
250.50 0.00956
251.00 0.00802
251.50 0.00722
252.00 0.00642
252.50 0.00562
253.00 0.00482
253.50 0.00415
254.00 0.00374
254.50 0.00334
255.00 0.00297
255.50 0.00269
256.00 0.00246
256.50 0.00223
257.00 0.00201
257.50 0.00186
258.00 0.00174
258.50 0.00161
259.00 0.00148
259.50 0.00139
260.00 0.00131
260.50 0.00123
261.00 0.00116
261.50 0.00110
262.00 0.00104
262.50 0.00098
263.00 0.00094
263.50 0.00090
264.00 0.00086
264.50 0.00082
265.00 0.00078
265.50 0.00075
266.00 0.00072
266.50 0.00070
267.00 0.00067
267.50 0.00065
268.00 0.00064
268.50 0.00062
269.00 0.00062
269.50 0.00061
270.00 0.00061
270.00 0.00061
270.50 0.00061
271.00 0.00062
271.50 0.00062
272.00 0.00064
272.50 0.00065
273.00 0.00067
273.50 0.00070
274.00 0.00072
274.50 0.00075
275.00 0.00078
275.50 0.00082
276.00 0.00086
276.50 0.00090
277.00 0.00094
277.50 0.00098
278.00 0.00104
278.50 0.00110
279.00 0.00116
279.50 0.00123
280.00 0.00131
280.50 0.00139
281.00 0.00148
281.50 0.00161
282.00 0.00174
282.50 0.00186
283.00 0.00201
283.50 0.00223
284.00 0.00246
284.50 0.00269
285.00 0.00297
285.50 0.00334
286.00 0.00374
286.50 0.00415
287.00 0.00482
287.50 0.00562
288.00 0.00642
288.50 0.00722
289.00 0.00802
289.50 0.00956
290.00 0.01181
290.50 0.01406
291.00 0.01632
291.50 0.01858
292.00 0.02084
292.50 0.02310
293.00 0.02626
293.50 0.03208
294.00 0.03781
294.50 0.04354
295.00 0.04926
295.50 0.05628
296.00 0.06850
296.50 0.08071
297.00 0.09162
297.50 0.10249
298.00 0.12017
298.50 0.13880
299.00 0.15737
299.50 0.17580
300.00 0.19359
300.50 0.21243
301.00 0.23459
301.50 0.25663
302.00 0.27855
302.50 0.29719
303.00 0.31465
303.50 0.32990
304.00 0.34201
304.50 0.35401
305.00 0.36685
305.50 0.37961
306.00 0.39226
306.50 0.40367
307.00 0.40967
307.50 0.41451
308.00 0.42218
308.50 0.43376
309.00 0.44536
309.50 0.45698
310.00 0.46606
310.50 0.47613
311.00 0.49140
311.50 0.50685
312.00 0.52414
312.50 0.54347
313.00 0.56313
313.50 0.58555
314.00 0.60805
314.50 0.63148
315.00 0.65577
315.50 0.68033
316.00 0.70492
316.50 0.72920
317.00 0.75368
317.50 0.77808
318.00 0.80246
318.50 0.82673
319.00 0.85115
319.50 0.87554
320.00 0.89987
320.50 0.92248
321.00 0.94507
321.50 0.96814
322.00 0.99120
322.50 1.01399
323.00 1.03465
323.50 1.05531
324.00 1.07376
324.50 1.09203
325.00 1.11028
325.50 1.12788
326.00 1.14260
326.50 1.15486
327.00 1.16773
327.50 1.18278
328.00 1.19787
328.50 1.21299
329.00 1.22502
329.50 1.23700
330.00 1.24927
330.50 1.26263
331.00 1.27603
331.50 1.28905
332.00 1.30167
332.50 1.31435
333.00 1.32598
333.50 1.33719
334.00 1.34836
334.50 1.35872
335.00 1.36912
335.50 1.37850
336.00 1.38525
336.50 1.39201
337.00 1.39540
337.50 1.39701
338.00 1.39867
338.50 1.40080
339.00 1.40313
339.50 1.40417
340.00 1.40281
340.50 1.40153
341.00 1.40086
341.50 1.40109
342.00 1.40140
342.50 1.40125
343.00 1.40051
343.50 1.40014
344.00 1.40022
344.50 1.40037
345.00 1.40060
345.50 1.40092
346.00 1.40114
346.50 1.40128
347.00 1.40151
347.50 1.40132
348.00 1.40083
348.50 1.40018
349.00 1.39837
349.50 1.39667
350.00 1.39516
350.50 1.39410
351.00 1.39314
351.50 1.39152
352.00 1.38990
352.50 1.38839
353.00 1.38770
353.50 1.38716
354.00 1.38681
354.50 1.38661
355.00 1.38653
355.50 1.38663
356.00 1.38683
356.50 1.38777
357.00 1.38885
357.50 1.38936
358.00 1.38999
358.50 1.39085
359.00 1.39136
359.50 1.39200
360.00 1.39274
