phi[deg] B[T]
0.00 1.62722
0.50 1.62707
1.00 1.62703
1.50 1.62710
2.00 1.62727
2.50 1.62708
3.00 1.62694
3.50 1.62681
4.00 1.62636
4.50 1.62613
5.00 1.62603
5.50 1.62604
6.00 1.62477
6.50 1.62271
7.00 1.62076
7.50 1.62018
8.00 1.61980
8.50 1.61949
9.00 1.61890
9.50 1.61782
10.00 1.61405
10.50 1.61034
11.00 1.60669
11.50 1.60310
12.00 1.59957
12.50 1.59610
13.00 1.59270
13.50 1.58841
14.00 1.58113
14.50 1.57389
15.00 1.56671
15.50 1.55957
16.00 1.55249
16.50 1.54546
17.00 1.53849
17.50 1.53157
18.00 1.52470
18.50 1.51067
19.00 1.49804
19.50 1.48534
20.00 1.47256
20.50 1.45971
21.00 1.44678
21.50 1.43378
22.00 1.42127
22.50 1.40945
23.00 1.39302
23.50 1.37206
24.00 1.35096
24.50 1.32973
25.00 1.30838
25.50 1.28690
26.00 1.26586
26.50 1.24434
27.00 1.21733
27.50 1.19017
28.00 1.16286
28.50 1.13628
29.00 1.10500
29.50 1.07431
30.00 1.04535
30.50 1.01617
31.00 0.98645
31.50 0.95387
32.00 0.91783
32.50 0.88157
33.00 0.84509
33.50 0.81052
34.00 0.77455
34.50 0.73696
35.00 0.70160
35.50 0.66602
36.00 0.63023
36.50 0.59052
37.00 0.54930
37.50 0.51406
38.00 0.48096
38.50 0.44772
39.00 0.41436
39.50 0.37844
40.00 0.34199
40.50 0.30955
41.00 0.28501
41.50 0.26042
42.00 0.23578
42.50 0.21085
43.00 0.19126
43.50 0.17488
44.00 0.15855
44.50 0.14221
45.00 0.12586
45.50 0.11528
46.00 0.10469
46.50 0.09409
47.00 0.08344
47.50 0.07542
48.00 0.06872
48.50 0.06203
49.00 0.05534
49.50 0.04933
50.00 0.04457
50.50 0.04033
51.00 0.03677
51.50 0.03322
52.00 0.02967
52.50 0.02650
53.00 0.02343
53.50 0.02143
54.00 0.01967
54.50 0.01804
55.00 0.01645
55.50 0.01487
56.00 0.01329
56.50 0.01171
57.00 0.01013
57.50 0.00926
58.00 0.00839
58.50 0.00752
59.00 0.00680
59.50 0.00626
60.00 0.00571
60.50 0.00517
61.00 0.00463
61.50 0.00411
62.00 0.00368
62.50 0.00325
63.00 0.00297
63.50 0.00275
64.00 0.00253
64.50 0.00231
65.00 0.00208
65.50 0.00186
66.00 0.00164
66.50 0.00151
67.00 0.00141
67.50 0.00130
68.00 0.00120
68.50 0.00109
69.00 0.00099
69.50 0.00089
70.00 0.00081
70.50 0.00077
71.00 0.00073
71.50 0.00068
72.00 0.00063
72.50 0.00058
73.00 0.00054
73.50 0.00049
74.00 0.00047
74.50 0.00045
75.00 0.00042
75.50 0.00040
76.00 0.00038
76.50 0.00035
77.00 0.00033
77.50 0.00031
78.00 0.00030
78.50 0.00028
79.00 0.00027
79.50 0.00025
80.00 0.00024
80.50 0.00023
81.00 0.00021
81.50 0.00020
82.00 0.00019
82.50 0.00018
83.00 0.00016
83.50 0.00015
84.00 0.00014
84.50 0.00013
85.00 0.00012
85.50 0.00011
86.00 0.00009
86.50 0.00008
87.00 0.00007
87.50 0.00006
88.00 0.00005
88.50 0.00004
89.00 0.00004
89.50 0.00004
90.00 0.00003
90.00 0.00003
90.50 0.00004
91.00 0.00004
91.50 0.00004
92.00 0.00005
92.50 0.00006
93.00 0.00007
93.50 0.00008
94.00 0.00009
94.50 0.00011
95.00 0.00012
95.50 0.00013
96.00 0.00014
96.50 0.00015
97.00 0.00016
97.50 0.00018
98.00 0.00019
98.50 0.00020
99.00 0.00021
99.50 0.00023
100.00 0.00024
100.50 0.00025
101.00 0.00027
101.50 0.00028
102.00 0.00030
102.50 0.00031
103.00 0.00033
103.50 0.00035
104.00 0.00038
104.50 0.00040
105.00 0.00042
105.50 0.00045
106.00 0.00047
106.50 0.00049
107.00 0.00054
107.50 0.00058
108.00 0.00063
108.50 0.00068
109.00 0.00073
109.50 0.00077
110.00 0.00081
110.50 0.00089
111.00 0.00099
111.50 0.00109
112.00 0.00120
112.50 0.00130
113.00 0.00141
113.50 0.00151
114.00 0.00164
114.50 0.00186
115.00 0.00208
115.50 0.00231
116.00 0.00253
116.50 0.00275
117.00 0.00297
117.50 0.00325
118.00 0.00368
118.50 0.00411
119.00 0.00463
119.50 0.00517
120.00 0.00571
120.50 0.00626
121.00 0.00680
121.50 0.00752
122.00 0.00839
122.50 0.00926
123.00 0.01013
123.50 0.01171
124.00 0.01329
124.50 0.01487
125.00 0.01645
125.50 0.01804
126.00 0.01967
126.50 0.02143
127.00 0.02343
127.50 0.02650
128.00 0.02967
128.50 0.03322
129.00 0.03677
129.50 0.04033
130.00 0.04457
130.50 0.04933
131.00 0.05534
131.50 0.06203
132.00 0.06872
132.50 0.07542
133.00 0.08344
133.50 0.09409
134.00 0.10469
134.50 0.11528
135.00 0.12586
135.50 0.14221
136.00 0.15855
136.50 0.17488
137.00 0.19126
137.50 0.21085
138.00 0.23578
138.50 0.26042
139.00 0.28501
139.50 0.30955
140.00 0.34199
140.50 0.37844
141.00 0.41436
141.50 0.44772
142.00 0.48096
142.50 0.51406
143.00 0.54930
143.50 0.59052
144.00 0.63023
144.50 0.66602
145.00 0.70160
145.50 0.73696
146.00 0.77455
146.50 0.81052
147.00 0.84509
147.50 0.88157
148.00 0.91783
148.50 0.95387
149.00 0.98645
149.50 1.01617
150.00 1.04535
150.50 1.07431
151.00 1.10500
151.50 1.13628
152.00 1.16286
152.50 1.19017
153.00 1.21733
153.50 1.24434
154.00 1.26586
154.50 1.28690
155.00 1.30838
155.50 1.32973
156.00 1.35096
156.50 1.37206
157.00 1.39302
157.50 1.40945
158.00 1.42127
158.50 1.43378
159.00 1.44678
159.50 1.45971
160.00 1.47256
160.50 1.48534
161.00 1.49804
161.50 1.51067
162.00 1.52470
162.50 1.53157
163.00 1.53849
163.50 1.54546
164.00 1.55249
164.50 1.55957
165.00 1.56671
165.50 1.57389
166.00 1.58113
166.50 1.58841
167.00 1.59270
167.50 1.59610
168.00 1.59957
168.50 1.60310
169.00 1.60669
169.50 1.61034
170.00 1.61405
170.50 1.61782
171.00 1.61890
171.50 1.61949
172.00 1.61980
172.50 1.62018
173.00 1.62076
173.50 1.62271
174.00 1.62477
174.50 1.62604
175.00 1.62603
175.50 1.62613
176.00 1.62636
176.50 1.62681
177.00 1.62694
177.50 1.62708
178.00 1.62727
178.50 1.62710
179.00 1.62703
179.50 1.62707
180.00 1.62722
180.00 1.62722
180.50 1.62707
181.00 1.62703
181.50 1.62710
182.00 1.62727
182.50 1.62708
183.00 1.62694
183.50 1.62681
184.00 1.62636
184.50 1.62613
185.00 1.62603
185.50 1.62604
186.00 1.62477
186.50 1.62271
187.00 1.62076
187.50 1.62018
188.00 1.61980
188.50 1.61949
189.00 1.61890
189.50 1.61782
190.00 1.61405
190.50 1.61034
191.00 1.60669
191.50 1.60310
192.00 1.59957
192.50 1.59610
193.00 1.59270
193.50 1.58841
194.00 1.58113
194.50 1.57389
195.00 1.56671
195.50 1.55957
196.00 1.55249
196.50 1.54546
197.00 1.53849
197.50 1.53157
198.00 1.52470
198.50 1.51067
199.00 1.49804
199.50 1.48534
200.00 1.47256
200.50 1.45971
201.00 1.44678
201.50 1.43378
202.00 1.42127
202.50 1.40945
203.00 1.39302
203.50 1.37206
204.00 1.35096
204.50 1.32973
205.00 1.30838
205.50 1.28690
206.00 1.26586
206.50 1.24434
207.00 1.21733
207.50 1.19017
208.00 1.16286
208.50 1.13628
209.00 1.10500
209.50 1.07431
210.00 1.04535
210.50 1.01617
211.00 0.98645
211.50 0.95387
212.00 0.91783
212.50 0.88157
213.00 0.84509
213.50 0.81052
214.00 0.77455
214.50 0.73696
215.00 0.70160
215.50 0.66602
216.00 0.63023
216.50 0.59052
217.00 0.54930
217.50 0.51406
218.00 0.48096
218.50 0.44772
219.00 0.41436
219.50 0.37844
220.00 0.34199
220.50 0.30955
221.00 0.28501
221.50 0.26042
222.00 0.23578
222.50 0.21085
223.00 0.19126
223.50 0.17488
224.00 0.15855
224.50 0.14221
225.00 0.12586
225.50 0.11528
226.00 0.10469
226.50 0.09409
227.00 0.08344
227.50 0.07542
228.00 0.06872
228.50 0.06203
229.00 0.05534
229.50 0.04933
230.00 0.04457
230.50 0.04033
231.00 0.03677
231.50 0.03322
232.00 0.02967
232.50 0.02650
233.00 0.02343
233.50 0.02143
234.00 0.01967
234.50 0.01804
235.00 0.01645
235.50 0.01487
236.00 0.01329
236.50 0.01171
237.00 0.01013
237.50 0.00926
238.00 0.00839
238.50 0.00752
239.00 0.00680
239.50 0.00626
240.00 0.00571
240.50 0.00517
241.00 0.00463
241.50 0.00411
242.00 0.00368
242.50 0.00325
243.00 0.00297
243.50 0.00275
244.00 0.00253
244.50 0.00231
245.00 0.00208
245.50 0.00186
246.00 0.00164
246.50 0.00151
247.00 0.00141
247.50 0.00130
248.00 0.00120
248.50 0.00109
249.00 0.00099
249.50 0.00089
250.00 0.00081
250.50 0.00077
251.00 0.00073
251.50 0.00068
252.00 0.00063
252.50 0.00058
253.00 0.00054
253.50 0.00049
254.00 0.00047
254.50 0.00045
255.00 0.00042
255.50 0.00040
256.00 0.00038
256.50 0.00035
257.00 0.00033
257.50 0.00031
258.00 0.00030
258.50 0.00028
259.00 0.00027
259.50 0.00025
260.00 0.00024
260.50 0.00023
261.00 0.00021
261.50 0.00020
262.00 0.00019
262.50 0.00018
263.00 0.00016
263.50 0.00015
264.00 0.00014
264.50 0.00013
265.00 0.00012
265.50 0.00011
266.00 0.00009
266.50 0.00008
267.00 0.00007
267.50 0.00006
268.00 0.00005
268.50 0.00004
269.00 0.00004
269.50 0.00004
270.00 0.00003
270.00 0.00003
270.50 0.00004
271.00 0.00004
271.50 0.00004
272.00 0.00005
272.50 0.00006
273.00 0.00007
273.50 0.00008
274.00 0.00009
274.50 0.00011
275.00 0.00012
275.50 0.00013
276.00 0.00014
276.50 0.00015
277.00 0.00016
277.50 0.00018
278.00 0.00019
278.50 0.00020
279.00 0.00021
279.50 0.00023
280.00 0.00024
280.50 0.00025
281.00 0.00027
281.50 0.00028
282.00 0.00030
282.50 0.00031
283.00 0.00033
283.50 0.00035
284.00 0.00038
284.50 0.00040
285.00 0.00042
285.50 0.00045
286.00 0.00047
286.50 0.00049
287.00 0.00054
287.50 0.00058
288.00 0.00063
288.50 0.00068
289.00 0.00073
289.50 0.00077
290.00 0.00081
290.50 0.00089
291.00 0.00099
291.50 0.00109
292.00 0.00120
292.50 0.00130
293.00 0.00141
293.50 0.00151
294.00 0.00164
294.50 0.00186
295.00 0.00208
295.50 0.00231
296.00 0.00253
296.50 0.00275
297.00 0.00297
297.50 0.00325
298.00 0.00368
298.50 0.00411
299.00 0.00463
299.50 0.00517
300.00 0.00571
300.50 0.00626
301.00 0.00680
301.50 0.00752
302.00 0.00839
302.50 0.00926
303.00 0.01013
303.50 0.01171
304.00 0.01329
304.50 0.01487
305.00 0.01645
305.50 0.01804
306.00 0.01967
306.50 0.02143
307.00 0.02343
307.50 0.02650
308.00 0.02967
308.50 0.03322
309.00 0.03677
309.50 0.04033
310.00 0.04457
310.50 0.04933
311.00 0.05534
311.50 0.06203
312.00 0.06872
312.50 0.07542
313.00 0.08344
313.50 0.09409
314.00 0.10469
314.50 0.11528
315.00 0.12586
315.50 0.14221
316.00 0.15855
316.50 0.17488
317.00 0.19126
317.50 0.21085
318.00 0.23578
318.50 0.26042
319.00 0.28501
319.50 0.30955
320.00 0.34199
320.50 0.37844
321.00 0.41436
321.50 0.44772
322.00 0.48096
322.50 0.51406
323.00 0.54930
323.50 0.59052
324.00 0.63023
324.50 0.66602
325.00 0.70160
325.50 0.73696
326.00 0.77455
326.50 0.81052
327.00 0.84509
327.50 0.88157
328.00 0.91783
328.50 0.95387
329.00 0.98645
329.50 1.01617
330.00 1.04535
330.50 1.07431
331.00 1.10500
331.50 1.13628
332.00 1.16286
332.50 1.19017
333.00 1.21733
333.50 1.24434
334.00 1.26586
334.50 1.28690
335.00 1.30838
335.50 1.32973
336.00 1.35096
336.50 1.37206
337.00 1.39302
337.50 1.40945
338.00 1.42127
338.50 1.43378
339.00 1.44678
339.50 1.45971
340.00 1.47256
340.50 1.48534
341.00 1.49804
341.50 1.51067
342.00 1.52470
342.50 1.53157
343.00 1.53849
343.50 1.54546
344.00 1.55249
344.50 1.55957
345.00 1.56671
345.50 1.57389
346.00 1.58113
346.50 1.58841
347.00 1.59270
347.50 1.59610
348.00 1.59957
348.50 1.60310
349.00 1.60669
349.50 1.61034
350.00 1.61405
350.50 1.61782
351.00 1.61890
351.50 1.61949
352.00 1.61980
352.50 1.62018
353.00 1.62076
353.50 1.62271
354.00 1.62477
354.50 1.62604
355.00 1.62603
355.50 1.62613
356.00 1.62636
356.50 1.62681
357.00 1.62694
357.50 1.62708
358.00 1.62727
358.50 1.62710
359.00 1.62703
359.50 1.62707
360.00 1.62722
