phi[deg] B[T]
0.00 1.77789
0.50 1.77739
1.00 1.77701
1.50 1.77676
2.00 1.77665
2.50 1.77665
3.00 1.77669
3.50 1.77687
4.00 1.77717
4.50 1.77760
5.00 1.77807
5.50 1.77847
6.00 1.77899
6.50 1.77955
7.00 1.77993
7.50 1.78091
8.00 1.78202
8.50 1.78325
9.00 1.78308
9.50 1.78196
10.00 1.78095
10.50 1.78182
11.00 1.78286
11.50 1.78399
12.00 1.78303
12.50 1.78095
13.00 1.77896
13.50 1.77605
14.00 1.77322
14.50 1.77047
15.00 1.76788
15.50 1.76539
16.00 1.76298
16.50 1.75946
17.00 1.75532
17.50 1.75126
18.00 1.74708
18.50 1.74103
19.00 1.73505
19.50 1.73029
20.00 1.72575
20.50 1.72127
21.00 1.71454
21.50 1.70756
22.00 1.70064
22.50 1.69173
23.00 1.68142
23.50 1.67114
24.00 1.66074
24.50 1.65030
25.00 1.63990
25.50 1.62825
26.00 1.61262
26.50 1.59703
27.00 1.58146
27.50 1.56593
28.00 1.55086
28.50 1.53602
29.00 1.51979
29.50 1.50299
30.00 1.48624
30.50 1.47010
31.00 1.45454
31.50 1.43791
32.00 1.42082
32.50 1.40391
33.00 1.38705
33.50 1.37023
34.00 1.35031
34.50 1.32926
35.00 1.31060
35.50 1.29195
36.00 1.27331
36.50 1.25468
37.00 1.23539
37.50 1.21350
38.00 1.19162
38.50 1.16975
39.00 1.14789
39.50 1.12521
40.00 1.10367
40.50 1.08251
41.00 1.06137
41.50 1.04023
42.00 1.01795
42.50 0.99740
43.00 0.97700
43.50 0.95650
44.00 0.93547
44.50 0.91443
45.00 0.89326
45.50 0.87236
46.00 0.85181
46.50 0.83123
47.00 0.81065
47.50 0.79007
48.00 0.76945
48.50 0.74741
49.00 0.72677
49.50 0.70643
50.00 0.68605
50.50 0.66563
51.00 0.64316
51.50 0.62295
52.00 0.60385
52.50 0.58467
53.00 0.56528
53.50 0.54541
54.00 0.52547
54.50 0.50546
55.00 0.48508
55.50 0.46373
56.00 0.44231
56.50 0.42128
57.00 0.40030
57.50 0.37923
58.00 0.35809
58.50 0.33688
59.00 0.31602
59.50 0.29675
60.00 0.27733
60.50 0.25763
61.00 0.23788
61.50 0.21807
62.00 0.19822
62.50 0.17976
63.00 0.16623
63.50 0.15263
64.00 0.13900
64.50 0.12537
65.00 0.11273
65.50 0.10377
66.00 0.09479
66.50 0.08580
67.00 0.07739
67.50 0.07027
68.00 0.06316
68.50 0.05605
69.00 0.05085
69.50 0.04641
70.00 0.04196
70.50 0.03751
71.00 0.03343
71.50 0.03046
72.00 0.02749
72.50 0.02453
73.00 0.02227
73.50 0.02024
74.00 0.01821
74.50 0.01618
75.00 0.01466
75.50 0.01342
76.00 0.01218
76.50 0.01094
77.00 0.00987
77.50 0.00884
78.00 0.00780
78.50 0.00715
79.00 0.00661
79.50 0.00608
80.00 0.00554
80.50 0.00497
81.00 0.00441
81.50 0.00384
82.00 0.00357
82.50 0.00330
83.00 0.00303
83.50 0.00276
84.00 0.00249
84.50 0.00222
85.00 0.00206
85.50 0.00193
86.00 0.00181
86.50 0.00169
87.00 0.00157
87.50 0.00145
88.00 0.00140
88.50 0.00135
89.00 0.00130
89.50 0.00126
90.00 0.00121
90.00 0.00121
90.50 0.00126
91.00 0.00130
91.50 0.00135
92.00 0.00140
92.50 0.00145
93.00 0.00157
93.50 0.00169
94.00 0.00181
94.50 0.00193
95.00 0.00206
95.50 0.00222
96.00 0.00249
96.50 0.00276
97.00 0.00303
97.50 0.00330
98.00 0.00357
98.50 0.00384
99.00 0.00441
99.50 0.00497
100.00 0.00554
100.50 0.00608
101.00 0.00661
101.50 0.00715
102.00 0.00780
102.50 0.00884
103.00 0.00987
103.50 0.01094
104.00 0.01218
104.50 0.01342
105.00 0.01466
105.50 0.01618
106.00 0.01821
106.50 0.02024
107.00 0.02227
107.50 0.02453
108.00 0.02749
108.50 0.03046
109.00 0.03343
109.50 0.03751
110.00 0.04196
110.50 0.04641
111.00 0.05085
111.50 0.05605
112.00 0.06316
112.50 0.07027
113.00 0.07739
113.50 0.08580
114.00 0.09479
114.50 0.10377
115.00 0.11273
115.50 0.12537
116.00 0.13900
116.50 0.15263
117.00 0.16623
117.50 0.17976
118.00 0.19822
118.50 0.21807
119.00 0.23788
119.50 0.25763
120.00 0.27733
120.50 0.29675
121.00 0.31602
121.50 0.33688
122.00 0.35809
122.50 0.37923
123.00 0.40030
123.50 0.42128
124.00 0.44231
124.50 0.46373
125.00 0.48508
125.50 0.50546
126.00 0.52547
126.50 0.54541
127.00 0.56528
127.50 0.58467
128.00 0.60385
128.50 0.62295
129.00 0.64316
129.50 0.66563
130.00 0.68605
130.50 0.70643
131.00 0.72677
131.50 0.74741
132.00 0.76945
132.50 0.79007
133.00 0.81065
133.50 0.83123
134.00 0.85181
134.50 0.87236
135.00 0.89326
135.50 0.91443
136.00 0.93547
136.50 0.95650
137.00 0.97700
137.50 0.99740
138.00 1.01795
138.50 1.04023
139.00 1.06137
139.50 1.08251
140.00 1.10367
140.50 1.12521
141.00 1.14789
141.50 1.16975
142.00 1.19162
142.50 1.21350
143.00 1.23539
143.50 1.25468
144.00 1.27331
144.50 1.29195
145.00 1.31060
145.50 1.32926
146.00 1.35031
146.50 1.37023
147.00 1.38705
147.50 1.40391
148.00 1.42082
148.50 1.43791
149.00 1.45454
149.50 1.47010
150.00 1.48624
150.50 1.50299
151.00 1.51979
151.50 1.53602
152.00 1.55086
152.50 1.56593
153.00 1.58146
153.50 1.59703
154.00 1.61262
154.50 1.62825
155.00 1.63990
155.50 1.65030
156.00 1.66074
156.50 1.67114
157.00 1.68142
157.50 1.69173
158.00 1.70064
158.50 1.70756
159.00 1.71454
159.50 1.72127
160.00 1.72575
160.50 1.73029
161.00 1.73505
161.50 1.74103
162.00 1.74708
162.50 1.75126
163.00 1.75532
163.50 1.75946
164.00 1.76298
164.50 1.76539
165.00 1.76788
165.50 1.77047
166.00 1.77322
166.50 1.77605
167.00 1.77896
167.50 1.78095
168.00 1.78303
168.50 1.78399
169.00 1.78286
169.50 1.78182
170.00 1.78095
170.50 1.78196
171.00 1.78308
171.50 1.78325
172.00 1.78202
172.50 1.78091
173.00 1.77993
173.50 1.77955
174.00 1.77899
174.50 1.77847
175.00 1.77807
175.50 1.77760
176.00 1.77717
176.50 1.77687
177.00 1.77669
177.50 1.77665
178.00 1.77665
178.50 1.77676
179.00 1.77701
179.50 1.77739
180.00 1.77789
180.00 1.77789
180.50 1.77739
181.00 1.77701
181.50 1.77676
182.00 1.77665
182.50 1.77665
183.00 1.77669
183.50 1.77687
184.00 1.77717
184.50 1.77760
185.00 1.77807
185.50 1.77847
186.00 1.77899
186.50 1.77955
187.00 1.77993
187.50 1.78091
188.00 1.78202
188.50 1.78325
189.00 1.78308
189.50 1.78196
190.00 1.78095
190.50 1.78182
191.00 1.78286
191.50 1.78399
192.00 1.78303
192.50 1.78095
193.00 1.77896
193.50 1.77605
194.00 1.77322
194.50 1.77047
195.00 1.76788
195.50 1.76539
196.00 1.76298
196.50 1.75946
197.00 1.75532
197.50 1.75126
198.00 1.74708
198.50 1.74103
199.00 1.73505
199.50 1.73029
200.00 1.72575
200.50 1.72127
201.00 1.71454
201.50 1.70756
202.00 1.70064
202.50 1.69173
203.00 1.68142
203.50 1.67114
204.00 1.66074
204.50 1.65030
205.00 1.63990
205.50 1.62825
206.00 1.61262
206.50 1.59703
207.00 1.58146
207.50 1.56593
208.00 1.55086
208.50 1.53602
209.00 1.51979
209.50 1.50299
210.00 1.48624
210.50 1.47010
211.00 1.45454
211.50 1.43791
212.00 1.42082
212.50 1.40391
213.00 1.38705
213.50 1.37023
214.00 1.35031
214.50 1.32926
215.00 1.31060
215.50 1.29195
216.00 1.27331
216.50 1.25468
217.00 1.23539
217.50 1.21350
218.00 1.19162
218.50 1.16975
219.00 1.14789
219.50 1.12521
220.00 1.10367
220.50 1.08251
221.00 1.06137
221.50 1.04023
222.00 1.01795
222.50 0.99740
223.00 0.97700
223.50 0.95650
224.00 0.93547
224.50 0.91443
225.00 0.89326
225.50 0.87236
226.00 0.85181
226.50 0.83123
227.00 0.81065
227.50 0.79007
228.00 0.76945
228.50 0.74741
229.00 0.72677
229.50 0.70643
230.00 0.68605
230.50 0.66563
231.00 0.64316
231.50 0.62295
232.00 0.60385
232.50 0.58467
233.00 0.56528
233.50 0.54541
234.00 0.52547
234.50 0.50546
235.00 0.48508
235.50 0.46373
236.00 0.44231
236.50 0.42128
237.00 0.40030
237.50 0.37923
238.00 0.35809
238.50 0.33688
239.00 0.31602
239.50 0.29675
240.00 0.27733
240.50 0.25763
241.00 0.23788
241.50 0.21807
242.00 0.19822
242.50 0.17976
243.00 0.16623
243.50 0.15263
244.00 0.13900
244.50 0.12537
245.00 0.11273
245.50 0.10377
246.00 0.09479
246.50 0.08580
247.00 0.07739
247.50 0.07027
248.00 0.06316
248.50 0.05605
249.00 0.05085
249.50 0.04641
250.00 0.04196
250.50 0.03751
251.00 0.03343
251.50 0.03046
252.00 0.02749
252.50 0.02453
253.00 0.02227
253.50 0.02024
254.00 0.01821
254.50 0.01618
255.00 0.01466
255.50 0.01342
256.00 0.01218
256.50 0.01094
257.00 0.00987
257.50 0.00884
258.00 0.00780
258.50 0.00715
259.00 0.00661
259.50 0.00608
260.00 0.00554
260.50 0.00497
261.00 0.00441
261.50 0.00384
262.00 0.00357
262.50 0.00330
263.00 0.00303
263.50 0.00276
264.00 0.00249
264.50 0.00222
265.00 0.00206
265.50 0.00193
266.00 0.00181
266.50 0.00169
267.00 0.00157
267.50 0.00145
268.00 0.00140
268.50 0.00135
269.00 0.00130
269.50 0.00126
270.00 0.00121
270.00 0.00121
270.50 0.00126
271.00 0.00130
271.50 0.00135
272.00 0.00140
272.50 0.00145
273.00 0.00157
273.50 0.00169
274.00 0.00181
274.50 0.00193
275.00 0.00206
275.50 0.00222
276.00 0.00249
276.50 0.00276
277.00 0.00303
277.50 0.00330
278.00 0.00357
278.50 0.00384
279.00 0.00441
279.50 0.00497
280.00 0.00554
280.50 0.00608
281.00 0.00661
281.50 0.00715
282.00 0.00780
282.50 0.00884
283.00 0.00987
283.50 0.01094
284.00 0.01218
284.50 0.01342
285.00 0.01466
285.50 0.01618
286.00 0.01821
286.50 0.02024
287.00 0.02227
287.50 0.02453
288.00 0.02749
288.50 0.03046
289.00 0.03343
289.50 0.03751
290.00 0.04196
290.50 0.04641
291.00 0.05085
291.50 0.05605
292.00 0.06316
292.50 0.07027
293.00 0.07739
293.50 0.08580
294.00 0.09479
294.50 0.10377
295.00 0.11273
295.50 0.12537
296.00 0.13900
296.50 0.15263
297.00 0.16623
297.50 0.17976
298.00 0.19822
298.50 0.21807
299.00 0.23788
299.50 0.25763
300.00 0.27733
300.50 0.29675
301.00 0.31602
301.50 0.33688
302.00 0.35809
302.50 0.37923
303.00 0.40030
303.50 0.42128
304.00 0.44231
304.50 0.46373
305.00 0.48508
305.50 0.50546
306.00 0.52547
306.50 0.54541
307.00 0.56528
307.50 0.58467
308.00 0.60385
308.50 0.62295
309.00 0.64316
309.50 0.66563
310.00 0.68605
310.50 0.70643
311.00 0.72677
311.50 0.74741
312.00 0.76945
312.50 0.79007
313.00 0.81065
313.50 0.83123
314.00 0.85181
314.50 0.87236
315.00 0.89326
315.50 0.91443
316.00 0.93547
316.50 0.95650
317.00 0.97700
317.50 0.99740
318.00 1.01795
318.50 1.04023
319.00 1.06137
319.50 1.08251
320.00 1.10367
320.50 1.12521
321.00 1.14789
321.50 1.16975
322.00 1.19162
322.50 1.21350
323.00 1.23539
323.50 1.25468
324.00 1.27331
324.50 1.29195
325.00 1.31060
325.50 1.32926
326.00 1.35031
326.50 1.37023
327.00 1.38705
327.50 1.40391
328.00 1.42082
328.50 1.43791
329.00 1.45454
329.50 1.47010
330.00 1.48624
330.50 1.50299
331.00 1.51979
331.50 1.53602
332.00 1.55086
332.50 1.56593
333.00 1.58146
333.50 1.59703
334.00 1.61262
334.50 1.62825
335.00 1.63990
335.50 1.65030
336.00 1.66074
336.50 1.67114
337.00 1.68142
337.50 1.69173
338.00 1.70064
338.50 1.70756
339.00 1.71454
339.50 1.72127
340.00 1.72575
340.50 1.73029
341.00 1.73505
341.50 1.74103
342.00 1.74708
342.50 1.75126
343.00 1.75532
343.50 1.75946
344.00 1.76298
344.50 1.76539
345.00 1.76788
345.50 1.77047
346.00 1.77322
346.50 1.77605
347.00 1.77896
347.50 1.78095
348.00 1.78303
348.50 1.78399
349.00 1.78286
349.50 1.78182
350.00 1.78095
350.50 1.78196
351.00 1.78308
351.50 1.78325
352.00 1.78202
352.50 1.78091
353.00 1.77993
353.50 1.77955
354.00 1.77899
354.50 1.77847
355.00 1.77807
355.50 1.77760
356.00 1.77717
356.50 1.77687
357.00 1.77669
357.50 1.77665
358.00 1.77665
358.50 1.77676
359.00 1.77701
359.50 1.77739
360.00 1.77789
