phi[deg] B[T]
0.00 1.22466
0.50 1.22449
1.00 1.22441
1.50 1.22452
2.00 1.22469
2.50 1.22495
3.00 1.22522
3.50 1.22511
4.00 1.22508
4.50 1.22513
5.00 1.22525
5.50 1.22548
6.00 1.22580
6.50 1.22616
7.00 1.22659
7.50 1.22708
8.00 1.22765
8.50 1.22828
9.00 1.22838
9.50 1.22738
10.00 1.22644
10.50 1.22557
11.00 1.22519
11.50 1.22609
12.00 1.22703
12.50 1.22803
13.00 1.22908
13.50 1.22999
14.00 1.22868
14.50 1.22741
15.00 1.22619
15.50 1.22502
16.00 1.22389
16.50 1.22280
17.00 1.22176
17.50 1.22285
18.00 1.22152
18.50 1.21908
19.00 1.21664
19.50 1.21419
20.00 1.21173
20.50 1.20926
21.00 1.20678
21.50 1.20430
22.00 1.20205
22.50 1.20235
23.00 1.20057
23.50 1.19712
24.00 1.19020
24.50 1.18322
25.00 1.17616
25.50 1.16903
26.00 1.16184
26.50 1.15457
27.00 1.14724
27.50 1.13984
28.00 1.13354
28.50 1.12790
29.00 1.11794
29.50 1.10789
30.00 1.09710
30.50 1.08585
31.00 1.07450
31.50 1.06304
32.00 1.05148
32.50 1.03757
33.00 1.02220
33.50 1.00675
34.00 0.99120
34.50 0.97557
35.00 0.95984
35.50 0.94349
36.00 0.92405
36.50 0.90407
37.00 0.88349
37.50 0.86279
38.00 0.84200
38.50 0.82110
39.00 0.80011
39.50 0.77886
40.00 0.75759
40.50 0.73620
41.00 0.71470
41.50 0.69308
42.00 0.67123
42.50 0.64672
43.00 0.62210
43.50 0.59736
44.00 0.57252
44.50 0.54758
45.00 0.52338
45.50 0.49846
46.00 0.47713
46.50 0.45590
47.00 0.43462
47.50 0.41328
48.00 0.39198
48.50 0.37251
49.00 0.35300
49.50 0.33344
50.00 0.31384
50.50 0.29424
51.00 0.27947
51.50 0.26501
52.00 0.25054
52.50 0.23606
53.00 0.22155
53.50 0.20703
54.00 0.19609
54.50 0.18629
55.00 0.17648
55.50 0.16670
56.00 0.15724
56.50 0.14778
57.00 0.13832
57.50 0.12886
58.00 0.11940
58.50 0.11193
59.00 0.10672
59.50 0.10151
60.00 0.09630
60.50 0.09109
61.00 0.08588
61.50 0.08073
62.00 0.07576
62.50 0.07078
63.00 0.06581
63.50 0.06085
64.00 0.05589
64.50 0.05287
65.00 0.05048
65.50 0.04809
66.00 0.04570
66.50 0.04331
67.00 0.04091
67.50 0.03852
68.00 0.03613
68.50 0.03374
69.00 0.03134
69.50 0.02899
70.00 0.02666
70.50 0.02540
71.00 0.02424
71.50 0.02311
72.00 0.02198
72.50 0.02085
73.00 0.01972
73.50 0.01859
74.00 0.01747
74.50 0.01634
75.00 0.01521
75.50 0.01409
76.00 0.01296
76.50 0.01232
77.00 0.01170
77.50 0.01109
78.00 0.01047
78.50 0.00986
79.00 0.00937
79.50 0.00887
80.00 0.00838
80.50 0.00789
81.00 0.00740
81.50 0.00709
82.00 0.00684
82.50 0.00658
83.00 0.00633
83.50 0.00608
84.00 0.00583
84.50 0.00558
85.00 0.00534
85.50 0.00509
86.00 0.00485
86.50 0.00477
87.00 0.00467
87.50 0.00458
88.00 0.00449
88.50 0.00440
89.00 0.00431
89.50 0.00422
90.00 0.00413
90.00 0.00413
90.50 0.00422
91.00 0.00431
91.50 0.00440
92.00 0.00449
92.50 0.00458
93.00 0.00467
93.50 0.00477
94.00 0.00485
94.50 0.00509
95.00 0.00534
95.50 0.00558
96.00 0.00583
96.50 0.00608
97.00 0.00633
97.50 0.00658
98.00 0.00684
98.50 0.00709
99.00 0.00740
99.50 0.00789
100.00 0.00838
100.50 0.00887
101.00 0.00937
101.50 0.00986
102.00 0.01047
102.50 0.01109
103.00 0.01170
103.50 0.01232
104.00 0.01296
104.50 0.01409
105.00 0.01521
105.50 0.01634
106.00 0.01747
106.50 0.01859
107.00 0.01972
107.50 0.02085
108.00 0.02198
108.50 0.02311
109.00 0.02424
109.50 0.02540
110.00 0.02666
110.50 0.02899
111.00 0.03134
111.50 0.03374
112.00 0.03613
112.50 0.03852
113.00 0.04091
113.50 0.04331
114.00 0.04570
114.50 0.04809
115.00 0.05048
115.50 0.05287
116.00 0.05589
116.50 0.06085
117.00 0.06581
117.50 0.07078
118.00 0.07576
118.50 0.08073
119.00 0.08588
119.50 0.09109
120.00 0.09630
120.50 0.10151
121.00 0.10672
121.50 0.11193
122.00 0.11940
122.50 0.12886
123.00 0.13832
123.50 0.14778
124.00 0.15724
124.50 0.16670
125.00 0.17648
125.50 0.18629
126.00 0.19609
126.50 0.20703
127.00 0.22155
127.50 0.23606
128.00 0.25054
128.50 0.26501
129.00 0.27947
129.50 0.29424
130.00 0.31384
130.50 0.33344
131.00 0.35300
131.50 0.37251
132.00 0.39198
132.50 0.41328
133.00 0.43462
133.50 0.45590
134.00 0.47713
134.50 0.49846
135.00 0.52338
135.50 0.54758
136.00 0.57252
136.50 0.59736
137.00 0.62210
137.50 0.64672
138.00 0.67123
138.50 0.69308
139.00 0.71470
139.50 0.73620
140.00 0.75759
140.50 0.77886
141.00 0.80011
141.50 0.82110
142.00 0.84200
142.50 0.86279
143.00 0.88349
143.50 0.90407
144.00 0.92405
144.50 0.94349
145.00 0.95984
145.50 0.97557
146.00 0.99120
146.50 1.00675
147.00 1.02220
147.50 1.03757
148.00 1.05148
148.50 1.06304
149.00 1.07450
149.50 1.08585
150.00 1.09710
150.50 1.10789
151.00 1.11794
151.50 1.12790
152.00 1.13354
152.50 1.13984
153.00 1.14724
153.50 1.15457
154.00 1.16184
154.50 1.16903
155.00 1.17616
155.50 1.18322
156.00 1.19020
156.50 1.19712
157.00 1.20057
157.50 1.20235
158.00 1.20205
158.50 1.20430
159.00 1.20678
159.50 1.20926
160.00 1.21173
160.50 1.21419
161.00 1.21664
161.50 1.21908
162.00 1.22152
162.50 1.22285
163.00 1.22176
163.50 1.22280
164.00 1.22389
164.50 1.22502
165.00 1.22619
165.50 1.22741
166.00 1.22868
166.50 1.22999
167.00 1.22908
167.50 1.22803
168.00 1.22703
168.50 1.22609
169.00 1.22519
169.50 1.22557
170.00 1.22644
170.50 1.22738
171.00 1.22838
171.50 1.22828
172.00 1.22765
172.50 1.22708
173.00 1.22659
173.50 1.22616
174.00 1.22580
174.50 1.22548
175.00 1.22525
175.50 1.22513
176.00 1.22508
176.50 1.22511
177.00 1.22522
177.50 1.22495
178.00 1.22469
178.50 1.22452
179.00 1.22441
179.50 1.22449
180.00 1.22466
180.00 1.22466
180.50 1.22449
181.00 1.22441
181.50 1.22452
182.00 1.22469
182.50 1.22495
183.00 1.22522
183.50 1.22511
184.00 1.22508
184.50 1.22513
185.00 1.22525
185.50 1.22548
186.00 1.22580
186.50 1.22616
187.00 1.22659
187.50 1.22708
188.00 1.22765
188.50 1.22828
189.00 1.22838
189.50 1.22738
190.00 1.22644
190.50 1.22557
191.00 1.22519
191.50 1.22609
192.00 1.22703
192.50 1.22803
193.00 1.22908
193.50 1.22999
194.00 1.22868
194.50 1.22741
195.00 1.22619
195.50 1.22502
196.00 1.22389
196.50 1.22280
197.00 1.22176
197.50 1.22285
198.00 1.22152
198.50 1.21908
199.00 1.21664
199.50 1.21419
200.00 1.21173
200.50 1.20926
201.00 1.20678
201.50 1.20430
202.00 1.20205
202.50 1.20235
203.00 1.20057
203.50 1.19712
204.00 1.19020
204.50 1.18322
205.00 1.17616
205.50 1.16903
206.00 1.16184
206.50 1.15457
207.00 1.14724
207.50 1.13984
208.00 1.13354
208.50 1.12790
209.00 1.11794
209.50 1.10789
210.00 1.09710
210.50 1.08585
211.00 1.07450
211.50 1.06304
212.00 1.05148
212.50 1.03757
213.00 1.02220
213.50 1.00675
214.00 0.99120
214.50 0.97557
215.00 0.95984
215.50 0.94349
216.00 0.92405
216.50 0.90407
217.00 0.88349
217.50 0.86279
218.00 0.84200
218.50 0.82110
219.00 0.80011
219.50 0.77886
220.00 0.75759
220.50 0.73620
221.00 0.71470
221.50 0.69308
222.00 0.67123
222.50 0.64672
223.00 0.62210
223.50 0.59736
224.00 0.57252
224.50 0.54758
225.00 0.52338
225.50 0.49846
226.00 0.47713
226.50 0.45590
227.00 0.43462
227.50 0.41328
228.00 0.39198
228.50 0.37251
229.00 0.35300
229.50 0.33344
230.00 0.31384
230.50 0.29424
231.00 0.27947
231.50 0.26501
232.00 0.25054
232.50 0.23606
233.00 0.22155
233.50 0.20703
234.00 0.19609
234.50 0.18629
235.00 0.17648
235.50 0.16670
236.00 0.15724
236.50 0.14778
237.00 0.13832
237.50 0.12886
238.00 0.11940
238.50 0.11193
239.00 0.10672
239.50 0.10151
240.00 0.09630
240.50 0.09109
241.00 0.08588
241.50 0.08073
242.00 0.07576
242.50 0.07078
243.00 0.06581
243.50 0.06085
244.00 0.05589
244.50 0.05287
245.00 0.05048
245.50 0.04809
246.00 0.04570
246.50 0.04331
247.00 0.04091
247.50 0.03852
248.00 0.03613
248.50 0.03374
249.00 0.03134
249.50 0.02899
250.00 0.02666
250.50 0.02540
251.00 0.02424
251.50 0.02311
252.00 0.02198
252.50 0.02085
253.00 0.01972
253.50 0.01859
254.00 0.01747
254.50 0.01634
255.00 0.01521
255.50 0.01409
256.00 0.01296
256.50 0.01232
257.00 0.01170
257.50 0.01109
258.00 0.01047
258.50 0.00986
259.00 0.00937
259.50 0.00887
260.00 0.00838
260.50 0.00789
261.00 0.00740
261.50 0.00709
262.00 0.00684
262.50 0.00658
263.00 0.00633
263.50 0.00608
264.00 0.00583
264.50 0.00558
265.00 0.00534
265.50 0.00509
266.00 0.00485
266.50 0.00477
267.00 0.00467
267.50 0.00458
268.00 0.00449
268.50 0.00440
269.00 0.00431
269.50 0.00422
270.00 0.00413
270.00 0.00413
270.50 0.00422
271.00 0.00431
271.50 0.00440
272.00 0.00449
272.50 0.00458
273.00 0.00467
273.50 0.00477
274.00 0.00485
274.50 0.00509
275.00 0.00534
275.50 0.00558
276.00 0.00583
276.50 0.00608
277.00 0.00633
277.50 0.00658
278.00 0.00684
278.50 0.00709
279.00 0.00740
279.50 0.00789
280.00 0.00838
280.50 0.00887
281.00 0.00937
281.50 0.00986
282.00 0.01047
282.50 0.01109
283.00 0.01170
283.50 0.01232
284.00 0.01296
284.50 0.01409
285.00 0.01521
285.50 0.01634
286.00 0.01747
286.50 0.01859
287.00 0.01972
287.50 0.02085
288.00 0.02198
288.50 0.02311
289.00 0.02424
289.50 0.02540
290.00 0.02666
290.50 0.02899
291.00 0.03134
291.50 0.03374
292.00 0.03613
292.50 0.03852
293.00 0.04091
293.50 0.04331
294.00 0.04570
294.50 0.04809
295.00 0.05048
295.50 0.05287
296.00 0.05589
296.50 0.06085
297.00 0.06581
297.50 0.07078
298.00 0.07576
298.50 0.08073
299.00 0.08588
299.50 0.09109
300.00 0.09630
300.50 0.10151
301.00 0.10672
301.50 0.11193
302.00 0.11940
302.50 0.12886
303.00 0.13832
303.50 0.14778
304.00 0.15724
304.50 0.16670
305.00 0.17648
305.50 0.18629
306.00 0.19609
306.50 0.20703
307.00 0.22155
307.50 0.23606
308.00 0.25054
308.50 0.26501
309.00 0.27947
309.50 0.29424
310.00 0.31384
310.50 0.33344
311.00 0.35300
311.50 0.37251
312.00 0.39198
312.50 0.41328
313.00 0.43462
313.50 0.45590
314.00 0.47713
314.50 0.49846
315.00 0.52338
315.50 0.54758
316.00 0.57252
316.50 0.59736
317.00 0.62210
317.50 0.64672
318.00 0.67123
318.50 0.69308
319.00 0.71470
319.50 0.73620
320.00 0.75759
320.50 0.77886
321.00 0.80011
321.50 0.82110
322.00 0.84200
322.50 0.86279
323.00 0.88349
323.50 0.90407
324.00 0.92405
324.50 0.94349
325.00 0.95984
325.50 0.97557
326.00 0.99120
326.50 1.00675
327.00 1.02220
327.50 1.03757
328.00 1.05148
328.50 1.06304
329.00 1.07450
329.50 1.08585
330.00 1.09710
330.50 1.10789
331.00 1.11794
331.50 1.12790
332.00 1.13354
332.50 1.13984
333.00 1.14724
333.50 1.15457
334.00 1.16184
334.50 1.16903
335.00 1.17616
335.50 1.18322
336.00 1.19020
336.50 1.19712
337.00 1.20057
337.50 1.20235
338.00 1.20205
338.50 1.20430
339.00 1.20678
339.50 1.20926
340.00 1.21173
340.50 1.21419
341.00 1.21664
341.50 1.21908
342.00 1.22152
342.50 1.22285
343.00 1.22176
343.50 1.22280
344.00 1.22389
344.50 1.22502
345.00 1.22619
345.50 1.22741
346.00 1.22868
346.50 1.22999
347.00 1.22908
347.50 1.22803
348.00 1.22703
348.50 1.22609
349.00 1.22519
349.50 1.22557
350.00 1.22644
350.50 1.22738
351.00 1.22838
351.50 1.22828
352.00 1.22765
352.50 1.22708
353.00 1.22659
353.50 1.22616
354.00 1.22580
354.50 1.22548
355.00 1.22525
355.50 1.22513
356.00 1.22508
356.50 1.22511
357.00 1.22522
357.50 1.22495
358.00 1.22469
358.50 1.22452
359.00 1.22441
359.50 1.22449
360.00 1.22466
