phi[deg] B[T]
0.00 1.97194
0.50 1.97193
1.00 1.97207
1.50 1.97236
2.00 1.97281
2.50 1.97348
3.00 1.97379
3.50 1.97495
4.00 1.97624
4.50 1.97768
5.00 1.97926
5.50 1.98098
6.00 1.98301
6.50 1.98519
7.00 1.98751
7.50 1.98845
8.00 1.98937
8.50 1.99078
9.00 1.99277
9.50 1.99488
10.00 1.99712
10.50 1.99697
11.00 1.99609
11.50 1.99591
12.00 1.99618
12.50 1.99655
13.00 1.99704
13.50 1.99739
14.00 1.99640
14.50 1.99456
15.00 1.99030
15.50 1.98673
16.00 1.98493
16.50 1.98321
17.00 1.98156
17.50 1.97887
18.00 1.97286
18.50 1.96690
19.00 1.96127
19.50 1.95795
20.00 1.95467
20.50 1.94962
21.00 1.94184
21.50 1.93410
22.00 1.92523
22.50 1.91494
23.00 1.90467
23.50 1.89443
24.00 1.88106
24.50 1.86699
25.00 1.85296
25.50 1.83880
26.00 1.82204
26.50 1.80563
27.00 1.78934
27.50 1.77308
28.00 1.75591
28.50 1.73757
29.00 1.71908
29.50 1.69953
30.00 1.67999
30.50 1.66047
31.00 1.63913
31.50 1.61680
32.00 1.59662
32.50 1.57644
33.00 1.55626
33.50 1.53484
34.00 1.51179
34.50 1.48874
35.00 1.46498
35.50 1.44047
36.00 1.41595
36.50 1.39144
37.00 1.36657
37.50 1.34085
38.00 1.31589
38.50 1.29094
39.00 1.26600
39.50 1.24079
40.00 1.21522
40.50 1.19083
41.00 1.16643
41.50 1.14201
42.00 1.11686
42.50 1.09282
43.00 1.06954
43.50 1.04624
44.00 1.02290
44.50 0.99955
45.00 0.97599
45.50 0.95311
46.00 0.93081
46.50 0.90848
47.00 0.88672
47.50 0.86542
48.00 0.84307
48.50 0.81990
49.00 0.79868
49.50 0.77771
50.00 0.75643
50.50 0.73412
51.00 0.71374
51.50 0.69331
52.00 0.67282
52.50 0.65217
53.00 0.62884
53.50 0.60719
54.00 0.58625
54.50 0.56525
55.00 0.54417
55.50 0.52283
56.00 0.49985
56.50 0.47898
57.00 0.45802
57.50 0.43697
58.00 0.41592
58.50 0.39582
59.00 0.37565
59.50 0.35362
60.00 0.33151
60.50 0.30935
61.00 0.28712
61.50 0.26532
62.00 0.24917
62.50 0.23320
63.00 0.21717
63.50 0.20110
64.00 0.18497
64.50 0.16811
65.00 0.15704
65.50 0.14617
66.00 0.13530
66.50 0.12437
67.00 0.11332
67.50 0.10226
68.00 0.09345
68.50 0.08736
69.00 0.08127
69.50 0.07517
70.00 0.06896
70.50 0.06274
71.00 0.05652
71.50 0.05067
72.00 0.04705
72.50 0.04367
73.00 0.04029
73.50 0.03692
74.00 0.03355
74.50 0.03018
75.00 0.02777
75.50 0.02591
76.00 0.02405
76.50 0.02219
77.00 0.02033
77.50 0.01840
78.00 0.01647
78.50 0.01522
79.00 0.01422
79.50 0.01323
80.00 0.01224
80.50 0.01124
81.00 0.01025
81.50 0.00928
82.00 0.00858
82.50 0.00801
83.00 0.00747
83.50 0.00693
84.00 0.00639
84.50 0.00591
85.00 0.00563
85.50 0.00534
86.00 0.00506
86.50 0.00477
87.00 0.00446
87.50 0.00436
88.00 0.00425
88.50 0.00413
89.00 0.00401
89.50 0.00389
90.00 0.00377
90.00 0.00377
90.50 0.00389
91.00 0.00401
91.50 0.00413
92.00 0.00425
92.50 0.00436
93.00 0.00446
93.50 0.00477
94.00 0.00506
94.50 0.00534
95.00 0.00563
95.50 0.00591
96.00 0.00639
96.50 0.00693
97.00 0.00747
97.50 0.00801
98.00 0.00858
98.50 0.00928
99.00 0.01025
99.50 0.01124
100.00 0.01224
100.50 0.01323
101.00 0.01422
101.50 0.01522
102.00 0.01647
102.50 0.01840
103.00 0.02033
103.50 0.02219
104.00 0.02405
104.50 0.02591
105.00 0.02777
105.50 0.03018
106.00 0.03355
106.50 0.03692
107.00 0.04029
107.50 0.04367
108.00 0.04705
108.50 0.05067
109.00 0.05652
109.50 0.06274
110.00 0.06896
110.50 0.07517
111.00 0.08127
111.50 0.08736
112.00 0.09345
112.50 0.10226
113.00 0.11332
113.50 0.12437
114.00 0.13530
114.50 0.14617
115.00 0.15704
115.50 0.16811
116.00 0.18497
116.50 0.20110
117.00 0.21717
117.50 0.23320
118.00 0.24917
118.50 0.26532
119.00 0.28712
119.50 0.30935
120.00 0.33151
120.50 0.35362
121.00 0.37565
121.50 0.39582
122.00 0.41592
122.50 0.43697
123.00 0.45802
123.50 0.47898
124.00 0.49985
124.50 0.52283
125.00 0.54417
125.50 0.56525
126.00 0.58625
126.50 0.60719
127.00 0.62884
127.50 0.65217
128.00 0.67282
128.50 0.69331
129.00 0.71374
129.50 0.73412
130.00 0.75643
130.50 0.77771
131.00 0.79868
131.50 0.81990
132.00 0.84307
132.50 0.86542
133.00 0.88672
133.50 0.90848
134.00 0.93081
134.50 0.95311
135.00 0.97599
135.50 0.99955
136.00 1.02290
136.50 1.04624
137.00 1.06954
137.50 1.09282
138.00 1.11686
138.50 1.14201
139.00 1.16643
139.50 1.19083
140.00 1.21522
140.50 1.24079
141.00 1.26600
141.50 1.29094
142.00 1.31589
142.50 1.34085
143.00 1.36657
143.50 1.39144
144.00 1.41595
144.50 1.44047
145.00 1.46498
145.50 1.48874
146.00 1.51179
146.50 1.53484
147.00 1.55626
147.50 1.57644
148.00 1.59662
148.50 1.61680
149.00 1.63913
149.50 1.66047
150.00 1.67999
150.50 1.69953
151.00 1.71908
151.50 1.73757
152.00 1.75591
152.50 1.77308
153.00 1.78934
153.50 1.80563
154.00 1.82204
154.50 1.83880
155.00 1.85296
155.50 1.86699
156.00 1.88106
156.50 1.89443
157.00 1.90467
157.50 1.91494
158.00 1.92523
158.50 1.93410
159.00 1.94184
159.50 1.94962
160.00 1.95467
160.50 1.95795
161.00 1.96127
161.50 1.96690
162.00 1.97286
162.50 1.97887
163.00 1.98156
163.50 1.98321
164.00 1.98493
164.50 1.98673
165.00 1.99030
165.50 1.99456
166.00 1.99640
166.50 1.99739
167.00 1.99704
167.50 1.99655
168.00 1.99618
168.50 1.99591
169.00 1.99609
169.50 1.99697
170.00 1.99712
170.50 1.99488
171.00 1.99277
171.50 1.99078
172.00 1.98937
172.50 1.98845
173.00 1.98751
173.50 1.98519
174.00 1.98301
174.50 1.98098
175.00 1.97926
175.50 1.97768
176.00 1.97624
176.50 1.97495
177.00 1.97379
177.50 1.97348
178.00 1.97281
178.50 1.97236
179.00 1.97207
179.50 1.97193
180.00 1.97194
180.00 1.97194
180.50 1.97193
181.00 1.97207
181.50 1.97236
182.00 1.97281
182.50 1.97348
183.00 1.97379
183.50 1.97495
184.00 1.97624
184.50 1.97768
185.00 1.97926
185.50 1.98098
186.00 1.98301
186.50 1.98519
187.00 1.98751
187.50 1.98845
188.00 1.98937
188.50 1.99078
189.00 1.99277
189.50 1.99488
190.00 1.99712
190.50 1.99697
191.00 1.99609
191.50 1.99591
192.00 1.99618
192.50 1.99655
193.00 1.99704
193.50 1.99739
194.00 1.99640
194.50 1.99456
195.00 1.99030
195.50 1.98673
196.00 1.98493
196.50 1.98321
197.00 1.98156
197.50 1.97887
198.00 1.97286
198.50 1.96690
199.00 1.96127
199.50 1.95795
200.00 1.95467
200.50 1.94962
201.00 1.94184
201.50 1.93410
202.00 1.92523
202.50 1.91494
203.00 1.90467
203.50 1.89443
204.00 1.88106
204.50 1.86699
205.00 1.85296
205.50 1.83880
206.00 1.82204
206.50 1.80563
207.00 1.78934
207.50 1.77308
208.00 1.75591
208.50 1.73757
209.00 1.71908
209.50 1.69953
210.00 1.67999
210.50 1.66047
211.00 1.63913
211.50 1.61680
212.00 1.59662
212.50 1.57644
213.00 1.55626
213.50 1.53484
214.00 1.51179
214.50 1.48874
215.00 1.46498
215.50 1.44047
216.00 1.41595
216.50 1.39144
217.00 1.36657
217.50 1.34085
218.00 1.31589
218.50 1.29094
219.00 1.26600
219.50 1.24079
220.00 1.21522
220.50 1.19083
221.00 1.16643
221.50 1.14201
222.00 1.11686
222.50 1.09282
223.00 1.06954
223.50 1.04624
224.00 1.02290
224.50 0.99955
225.00 0.97599
225.50 0.95311
226.00 0.93081
226.50 0.90848
227.00 0.88672
227.50 0.86542
228.00 0.84307
228.50 0.81990
229.00 0.79868
229.50 0.77771
230.00 0.75643
230.50 0.73412
231.00 0.71374
231.50 0.69331
232.00 0.67282
232.50 0.65217
233.00 0.62884
233.50 0.60719
234.00 0.58625
234.50 0.56525
235.00 0.54417
235.50 0.52283
236.00 0.49985
236.50 0.47898
237.00 0.45802
237.50 0.43697
238.00 0.41592
238.50 0.39582
239.00 0.37565
239.50 0.35362
240.00 0.33151
240.50 0.30935
241.00 0.28712
241.50 0.26532
242.00 0.24917
242.50 0.23320
243.00 0.21717
243.50 0.20110
244.00 0.18497
244.50 0.16811
245.00 0.15704
245.50 0.14617
246.00 0.13530
246.50 0.12437
247.00 0.11332
247.50 0.10226
248.00 0.09345
248.50 0.08736
249.00 0.08127
249.50 0.07517
250.00 0.06896
250.50 0.06274
251.00 0.05652
251.50 0.05067
252.00 0.04705
252.50 0.04367
253.00 0.04029
253.50 0.03692
254.00 0.03355
254.50 0.03018
255.00 0.02777
255.50 0.02591
256.00 0.02405
256.50 0.02219
257.00 0.02033
257.50 0.01840
258.00 0.01647
258.50 0.01522
259.00 0.01422
259.50 0.01323
260.00 0.01224
260.50 0.01124
261.00 0.01025
261.50 0.00928
262.00 0.00858
262.50 0.00801
263.00 0.00747
263.50 0.00693
264.00 0.00639
264.50 0.00591
265.00 0.00563
265.50 0.00534
266.00 0.00506
266.50 0.00477
267.00 0.00446
267.50 0.00436
268.00 0.00425
268.50 0.00413
269.00 0.00401
269.50 0.00389
270.00 0.00377
270.00 0.00377
270.50 0.00389
271.00 0.00401
271.50 0.00413
272.00 0.00425
272.50 0.00436
273.00 0.00446
273.50 0.00477
274.00 0.00506
274.50 0.00534
275.00 0.00563
275.50 0.00591
276.00 0.00639
276.50 0.00693
277.00 0.00747
277.50 0.00801
278.00 0.00858
278.50 0.00928
279.00 0.01025
279.50 0.01124
280.00 0.01224
280.50 0.01323
281.00 0.01422
281.50 0.01522
282.00 0.01647
282.50 0.01840
283.00 0.02033
283.50 0.02219
284.00 0.02405
284.50 0.02591
285.00 0.02777
285.50 0.03018
286.00 0.03355
286.50 0.03692
287.00 0.04029
287.50 0.04367
288.00 0.04705
288.50 0.05067
289.00 0.05652
289.50 0.06274
290.00 0.06896
290.50 0.07517
291.00 0.08127
291.50 0.08736
292.00 0.09345
292.50 0.10226
293.00 0.11332
293.50 0.12437
294.00 0.13530
294.50 0.14617
295.00 0.15704
295.50 0.16811
296.00 0.18497
296.50 0.20110
297.00 0.21717
297.50 0.23320
298.00 0.24917
298.50 0.26532
299.00 0.28712
299.50 0.30935
300.00 0.33151
300.50 0.35362
301.00 0.37565
301.50 0.39582
302.00 0.41592
302.50 0.43697
303.00 0.45802
303.50 0.47898
304.00 0.49985
304.50 0.52283
305.00 0.54417
305.50 0.56525
306.00 0.58625
306.50 0.60719
307.00 0.62884
307.50 0.65217
308.00 0.67282
308.50 0.69331
309.00 0.71374
309.50 0.73412
310.00 0.75643
310.50 0.77771
311.00 0.79868
311.50 0.81990
312.00 0.84307
312.50 0.86542
313.00 0.88672
313.50 0.90848
314.00 0.93081
314.50 0.95311
315.00 0.97599
315.50 0.99955
316.00 1.02290
316.50 1.04624
317.00 1.06954
317.50 1.09282
318.00 1.11686
318.50 1.14201
319.00 1.16643
319.50 1.19083
320.00 1.21522
320.50 1.24079
321.00 1.26600
321.50 1.29094
322.00 1.31589
322.50 1.34085
323.00 1.36657
323.50 1.39144
324.00 1.41595
324.50 1.44047
325.00 1.46498
325.50 1.48874
326.00 1.51179
326.50 1.53484
327.00 1.55626
327.50 1.57644
328.00 1.59662
328.50 1.61680
329.00 1.63913
329.50 1.66047
330.00 1.67999
330.50 1.69953
331.00 1.71908
331.50 1.73757
332.00 1.75591
332.50 1.77308
333.00 1.78934
333.50 1.80563
334.00 1.82204
334.50 1.83880
335.00 1.85296
335.50 1.86699
336.00 1.88106
336.50 1.89443
337.00 1.90467
337.50 1.91494
338.00 1.92523
338.50 1.93410
339.00 1.94184
339.50 1.94962
340.00 1.95467
340.50 1.95795
341.00 1.96127
341.50 1.96690
342.00 1.97286
342.50 1.97887
343.00 1.98156
343.50 1.98321
344.00 1.98493
344.50 1.98673
345.00 1.99030
345.50 1.99456
346.00 1.99640
346.50 1.99739
347.00 1.99704
347.50 1.99655
348.00 1.99618
348.50 1.99591
349.00 1.99609
349.50 1.99697
350.00 1.99712
350.50 1.99488
351.00 1.99277
351.50 1.99078
352.00 1.98937
352.50 1.98845
353.00 1.98751
353.50 1.98519
354.00 1.98301
354.50 1.98098
355.00 1.97926
355.50 1.97768
356.00 1.97624
356.50 1.97495
357.00 1.97379
357.50 1.97348
358.00 1.97281
358.50 1.97236
359.00 1.97207
359.50 1.97193
360.00 1.97194
