phi[deg] B[T]
0.00 1.31421
0.50 1.31395
1.00 1.31378
1.50 1.31374
2.00 1.31402
2.50 1.31407
3.00 1.31407
3.50 1.31415
4.00 1.31433
4.50 1.31455
5.00 1.31469
5.50 1.31492
6.00 1.31485
6.50 1.31460
7.00 1.31444
7.50 1.31438
8.00 1.31480
8.50 1.31530
9.00 1.31580
9.50 1.31625
10.00 1.31568
10.50 1.31520
11.00 1.31479
11.50 1.31446
12.00 1.31422
12.50 1.31405
13.00 1.31397
13.50 1.31439
14.00 1.31435
14.50 1.31363
15.00 1.31296
15.50 1.31235
16.00 1.31178
16.50 1.31126
17.00 1.31111
17.50 1.31144
18.00 1.30931
18.50 1.30721
19.00 1.30514
19.50 1.30309
20.00 1.29935
20.50 1.29518
21.00 1.29142
21.50 1.28763
22.00 1.28382
22.50 1.27998
23.00 1.27768
23.50 1.26805
24.00 1.25779
24.50 1.24742
25.00 1.23694
25.50 1.22634
26.00 1.21563
26.50 1.20481
27.00 1.19716
27.50 1.18894
28.00 1.17640
28.50 1.15457
29.00 1.13207
29.50 1.10935
30.00 1.08640
30.50 1.06324
31.00 1.03985
31.50 1.01625
32.00 0.99765
32.50 0.97048
33.00 0.93743
33.50 0.90365
34.00 0.86958
34.50 0.83522
35.00 0.80057
35.50 0.76563
36.00 0.73042
36.50 0.69503
37.00 0.65839
37.50 0.61452
38.00 0.57439
38.50 0.53762
39.00 0.50213
39.50 0.46654
40.00 0.43088
40.50 0.39604
41.00 0.36110
41.50 0.32692
42.00 0.30023
42.50 0.27304
43.00 0.24581
43.50 0.22434
44.00 0.20388
44.50 0.18339
45.00 0.16352
45.50 0.14999
46.00 0.13607
46.50 0.12214
47.00 0.10821
47.50 0.09821
48.00 0.08862
48.50 0.07948
49.00 0.07200
49.50 0.06495
50.00 0.05791
50.50 0.05303
51.00 0.04816
51.50 0.04336
52.00 0.03858
52.50 0.03403
53.00 0.03115
53.50 0.02833
54.00 0.02614
54.50 0.02395
55.00 0.02177
55.50 0.01959
56.00 0.01741
56.50 0.01524
57.00 0.01347
57.50 0.01199
58.00 0.01069
58.50 0.00990
59.00 0.00910
59.50 0.00829
60.00 0.00747
60.50 0.00664
61.00 0.00581
61.50 0.00523
62.00 0.00483
62.50 0.00443
63.00 0.00403
63.50 0.00363
64.00 0.00323
64.50 0.00284
65.00 0.00261
65.50 0.00242
66.00 0.00223
66.50 0.00203
67.00 0.00183
67.50 0.00164
68.00 0.00144
68.50 0.00132
69.00 0.00123
69.50 0.00114
70.00 0.00105
70.50 0.00097
71.00 0.00088
71.50 0.00079
72.00 0.00070
72.50 0.00064
73.00 0.00060
73.50 0.00056
74.00 0.00053
74.50 0.00049
75.00 0.00045
75.50 0.00042
76.00 0.00038
76.50 0.00035
77.00 0.00033
77.50 0.00031
78.00 0.00030
78.50 0.00028
79.00 0.00026
79.50 0.00024
80.00 0.00022
80.50 0.00021
81.00 0.00020
81.50 0.00019
82.00 0.00017
82.50 0.00016
83.00 0.00015
83.50 0.00014
84.00 0.00013
84.50 0.00012
85.00 0.00011
85.50 0.00010
86.00 0.00009
86.50 0.00008
87.00 0.00006
87.50 0.00005
88.00 0.00005
88.50 0.00004
89.00 0.00004
89.50 0.00003
90.00 0.00003
90.00 0.00003
90.50 0.00003
91.00 0.00004
91.50 0.00004
92.00 0.00005
92.50 0.00005
93.00 0.00006
93.50 0.00008
94.00 0.00009
94.50 0.00010
95.00 0.00011
95.50 0.00012
96.00 0.00013
96.50 0.00014
97.00 0.00015
97.50 0.00016
98.00 0.00017
98.50 0.00019
99.00 0.00020
99.50 0.00021
100.00 0.00022
100.50 0.00024
101.00 0.00026
101.50 0.00028
102.00 0.00030
102.50 0.00031
103.00 0.00033
103.50 0.00035
104.00 0.00038
104.50 0.00042
105.00 0.00045
105.50 0.00049
106.00 0.00053
106.50 0.00056
107.00 0.00060
107.50 0.00064
108.00 0.00070
108.50 0.00079
109.00 0.00088
109.50 0.00097
110.00 0.00105
110.50 0.00114
111.00 0.00123
111.50 0.00132
112.00 0.00144
112.50 0.00164
113.00 0.00183
113.50 0.00203
114.00 0.00223
114.50 0.00242
115.00 0.00261
115.50 0.00284
116.00 0.00323
116.50 0.00363
117.00 0.00403
117.50 0.00443
118.00 0.00483
118.50 0.00523
119.00 0.00581
119.50 0.00664
120.00 0.00747
120.50 0.00829
121.00 0.00910
121.50 0.00990
122.00 0.01069
122.50 0.01199
123.00 0.01347
123.50 0.01524
124.00 0.01741
124.50 0.01959
125.00 0.02177
125.50 0.02395
126.00 0.02614
126.50 0.02833
127.00 0.03115
127.50 0.03403
128.00 0.03858
128.50 0.04336
129.00 0.04816
129.50 0.05303
130.00 0.05791
130.50 0.06495
131.00 0.07200
131.50 0.07948
132.00 0.08862
132.50 0.09821
133.00 0.10821
133.50 0.12214
134.00 0.13607
134.50 0.14999
135.00 0.16352
135.50 0.18339
136.00 0.20388
136.50 0.22434
137.00 0.24581
137.50 0.27304
138.00 0.30023
138.50 0.32692
139.00 0.36110
139.50 0.39604
140.00 0.43088
140.50 0.46654
141.00 0.50213
141.50 0.53762
142.00 0.57439
142.50 0.61452
143.00 0.65839
143.50 0.69503
144.00 0.73042
144.50 0.76563
145.00 0.80057
145.50 0.83522
146.00 0.86958
146.50 0.90365
147.00 0.93743
147.50 0.97048
148.00 0.99765
148.50 1.01625
149.00 1.03985
149.50 1.06324
150.00 1.08640
150.50 1.10935
151.00 1.13207
151.50 1.15457
152.00 1.17640
152.50 1.18894
153.00 1.19716
153.50 1.20481
154.00 1.21563
154.50 1.22634
155.00 1.23694
155.50 1.24742
156.00 1.25779
156.50 1.26805
157.00 1.27768
157.50 1.27998
158.00 1.28382
158.50 1.28763
159.00 1.29142
159.50 1.29518
160.00 1.29935
160.50 1.30309
161.00 1.30514
161.50 1.30721
162.00 1.30931
162.50 1.31144
163.00 1.31111
163.50 1.31126
164.00 1.31178
164.50 1.31235
165.00 1.31296
165.50 1.31363
166.00 1.31435
166.50 1.31439
167.00 1.31397
167.50 1.31405
168.00 1.31422
168.50 1.31446
169.00 1.31479
169.50 1.31520
170.00 1.31568
170.50 1.31625
171.00 1.31580
171.50 1.31530
172.00 1.31480
172.50 1.31438
173.00 1.31444
173.50 1.31460
174.00 1.31485
174.50 1.31492
175.00 1.31469
175.50 1.31455
176.00 1.31433
176.50 1.31415
177.00 1.31407
177.50 1.31407
178.00 1.31402
178.50 1.31374
179.00 1.31378
179.50 1.31395
180.00 1.31421
180.00 1.31421
180.50 1.31395
181.00 1.31378
181.50 1.31374
182.00 1.31402
182.50 1.31407
183.00 1.31407
183.50 1.31415
184.00 1.31433
184.50 1.31455
185.00 1.31469
185.50 1.31492
186.00 1.31485
186.50 1.31460
187.00 1.31444
187.50 1.31438
188.00 1.31480
188.50 1.31530
189.00 1.31580
189.50 1.31625
190.00 1.31568
190.50 1.31520
191.00 1.31479
191.50 1.31446
192.00 1.31422
192.50 1.31405
193.00 1.31397
193.50 1.31439
194.00 1.31435
194.50 1.31363
195.00 1.31296
195.50 1.31235
196.00 1.31178
196.50 1.31126
197.00 1.31111
197.50 1.31144
198.00 1.30931
198.50 1.30721
199.00 1.30514
199.50 1.30309
200.00 1.29935
200.50 1.29518
201.00 1.29142
201.50 1.28763
202.00 1.28382
202.50 1.27998
203.00 1.27768
203.50 1.26805
204.00 1.25779
204.50 1.24742
205.00 1.23694
205.50 1.22634
206.00 1.21563
206.50 1.20481
207.00 1.19716
207.50 1.18894
208.00 1.17640
208.50 1.15457
209.00 1.13207
209.50 1.10935
210.00 1.08640
210.50 1.06324
211.00 1.03985
211.50 1.01625
212.00 0.99765
212.50 0.97048
213.00 0.93743
213.50 0.90365
214.00 0.86958
214.50 0.83522
215.00 0.80057
215.50 0.76563
216.00 0.73042
216.50 0.69503
217.00 0.65839
217.50 0.61452
218.00 0.57439
218.50 0.53762
219.00 0.50213
219.50 0.46654
220.00 0.43088
220.50 0.39604
221.00 0.36110
221.50 0.32692
222.00 0.30023
222.50 0.27304
223.00 0.24581
223.50 0.22434
224.00 0.20388
224.50 0.18339
225.00 0.16352
225.50 0.14999
226.00 0.13607
226.50 0.12214
227.00 0.10821
227.50 0.09821
228.00 0.08862
228.50 0.07948
229.00 0.07200
229.50 0.06495
230.00 0.05791
230.50 0.05303
231.00 0.04816
231.50 0.04336
232.00 0.03858
232.50 0.03403
233.00 0.03115
233.50 0.02833
234.00 0.02614
234.50 0.02395
235.00 0.02177
235.50 0.01959
236.00 0.01741
236.50 0.01524
237.00 0.01347
237.50 0.01199
238.00 0.01069
238.50 0.00990
239.00 0.00910
239.50 0.00829
240.00 0.00747
240.50 0.00664
241.00 0.00581
241.50 0.00523
242.00 0.00483
242.50 0.00443
243.00 0.00403
243.50 0.00363
244.00 0.00323
244.50 0.00284
245.00 0.00261
245.50 0.00242
246.00 0.00223
246.50 0.00203
247.00 0.00183
247.50 0.00164
248.00 0.00144
248.50 0.00132
249.00 0.00123
249.50 0.00114
250.00 0.00105
250.50 0.00097
251.00 0.00088
251.50 0.00079
252.00 0.00070
252.50 0.00064
253.00 0.00060
253.50 0.00056
254.00 0.00053
254.50 0.00049
255.00 0.00045
255.50 0.00042
256.00 0.00038
256.50 0.00035
257.00 0.00033
257.50 0.00031
258.00 0.00030
258.50 0.00028
259.00 0.00026
259.50 0.00024
260.00 0.00022
260.50 0.00021
261.00 0.00020
261.50 0.00019
262.00 0.00017
262.50 0.00016
263.00 0.00015
263.50 0.00014
264.00 0.00013
264.50 0.00012
265.00 0.00011
265.50 0.00010
266.00 0.00009
266.50 0.00008
267.00 0.00006
267.50 0.00005
268.00 0.00005
268.50 0.00004
269.00 0.00004
269.50 0.00003
270.00 0.00003
270.00 0.00003
270.50 0.00003
271.00 0.00004
271.50 0.00004
272.00 0.00005
272.50 0.00005
273.00 0.00006
273.50 0.00008
274.00 0.00009
274.50 0.00010
275.00 0.00011
275.50 0.00012
276.00 0.00013
276.50 0.00014
277.00 0.00015
277.50 0.00016
278.00 0.00017
278.50 0.00019
279.00 0.00020
279.50 0.00021
280.00 0.00022
280.50 0.00024
281.00 0.00026
281.50 0.00028
282.00 0.00030
282.50 0.00031
283.00 0.00033
283.50 0.00035
284.00 0.00038
284.50 0.00042
285.00 0.00045
285.50 0.00049
286.00 0.00053
286.50 0.00056
287.00 0.00060
287.50 0.00064
288.00 0.00070
288.50 0.00079
289.00 0.00088
289.50 0.00097
290.00 0.00105
290.50 0.00114
291.00 0.00123
291.50 0.00132
292.00 0.00144
292.50 0.00164
293.00 0.00183
293.50 0.00203
294.00 0.00223
294.50 0.00242
295.00 0.00261
295.50 0.00284
296.00 0.00323
296.50 0.00363
297.00 0.00403
297.50 0.00443
298.00 0.00483
298.50 0.00523
299.00 0.00581
299.50 0.00664
300.00 0.00747
300.50 0.00829
301.00 0.00910
301.50 0.00990
302.00 0.01069
302.50 0.01199
303.00 0.01347
303.50 0.01524
304.00 0.01741
304.50 0.01959
305.00 0.02177
305.50 0.02395
306.00 0.02614
306.50 0.02833
307.00 0.03115
307.50 0.03403
308.00 0.03858
308.50 0.04336
309.00 0.04816
309.50 0.05303
310.00 0.05791
310.50 0.06495
311.00 0.07200
311.50 0.07948
312.00 0.08862
312.50 0.09821
313.00 0.10821
313.50 0.12214
314.00 0.13607
314.50 0.14999
315.00 0.16352
315.50 0.18339
316.00 0.20388
316.50 0.22434
317.00 0.24581
317.50 0.27304
318.00 0.30023
318.50 0.32692
319.00 0.36110
319.50 0.39604
320.00 0.43088
320.50 0.46654
321.00 0.50213
321.50 0.53762
322.00 0.57439
322.50 0.61452
323.00 0.65839
323.50 0.69503
324.00 0.73042
324.50 0.76563
325.00 0.80057
325.50 0.83522
326.00 0.86958
326.50 0.90365
327.00 0.93743
327.50 0.97048
328.00 0.99765
328.50 1.01625
329.00 1.03985
329.50 1.06324
330.00 1.08640
330.50 1.10935
331.00 1.13207
331.50 1.15457
332.00 1.17640
332.50 1.18894
333.00 1.19716
333.50 1.20481
334.00 1.21563
334.50 1.22634
335.00 1.23694
335.50 1.24742
336.00 1.25779
336.50 1.26805
337.00 1.27768
337.50 1.27998
338.00 1.28382
338.50 1.28763
339.00 1.29142
339.50 1.29518
340.00 1.29935
340.50 1.30309
341.00 1.30514
341.50 1.30721
342.00 1.30931
342.50 1.31144
343.00 1.31111
343.50 1.31126
344.00 1.31178
344.50 1.31235
345.00 1.31296
345.50 1.31363
346.00 1.31435
346.50 1.31439
347.00 1.31397
347.50 1.31405
348.00 1.31422
348.50 1.31446
349.00 1.31479
349.50 1.31520
350.00 1.31568
350.50 1.31625
351.00 1.31580
351.50 1.31530
352.00 1.31480
352.50 1.31438
353.00 1.31444
353.50 1.31460
354.00 1.31485
354.50 1.31492
355.00 1.31469
355.50 1.31455
356.00 1.31433
356.50 1.31415
357.00 1.31407
357.50 1.31407
358.00 1.31402
358.50 1.31374
359.00 1.31378
359.50 1.31395
360.00 1.31421
