phi[deg] B[T]
0.00 1.71180
0.50 1.71190
1.00 1.71213
1.50 1.71251
2.00 1.71302
2.50 1.71367
3.00 1.71465
3.50 1.71588
4.00 1.71723
4.50 1.71871
5.00 1.72032
5.50 1.72217
6.00 1.72432
6.50 1.72660
7.00 1.72900
7.50 1.73036
8.00 1.73138
8.50 1.73286
9.00 1.73467
9.50 1.73659
10.00 1.73862
10.50 1.74037
11.00 1.73923
11.50 1.73820
12.00 1.73867
12.50 1.73933
13.00 1.74006
13.50 1.74060
14.00 1.73878
14.50 1.73704
15.00 1.73538
15.50 1.73303
16.00 1.72959
16.50 1.72622
17.00 1.72286
17.50 1.71865
18.00 1.71451
18.50 1.71045
19.00 1.70646
19.50 1.70254
20.00 1.69758
20.50 1.68970
21.00 1.68226
21.50 1.67490
22.00 1.66759
22.50 1.66032
23.00 1.65310
23.50 1.64592
24.00 1.63329
24.50 1.62024
25.00 1.60705
25.50 1.59354
26.00 1.58005
26.50 1.56660
27.00 1.55318
27.50 1.53980
28.00 1.52244
28.50 1.50451
29.00 1.48661
29.50 1.46964
30.00 1.45396
30.50 1.43829
31.00 1.42262
31.50 1.40592
32.00 1.38717
32.50 1.36843
33.00 1.34971
33.50 1.32942
34.00 1.30833
34.50 1.28723
35.00 1.26614
35.50 1.24535
36.00 1.22460
36.50 1.20385
37.00 1.18127
37.50 1.15819
38.00 1.13512
38.50 1.11206
39.00 1.08907
39.50 1.06657
40.00 1.04420
40.50 1.02184
41.00 0.99949
41.50 0.97680
42.00 0.95482
42.50 0.93361
43.00 0.91241
43.50 0.89189
44.00 0.87151
44.50 0.85115
45.00 0.83031
45.50 0.81059
46.00 0.79173
46.50 0.77287
47.00 0.75429
47.50 0.73723
48.00 0.72015
48.50 0.70233
49.00 0.68383
49.50 0.66774
50.00 0.65161
50.50 0.63546
51.00 0.61928
51.50 0.60056
52.00 0.58420
52.50 0.56818
53.00 0.55210
53.50 0.53596
54.00 0.52041
54.50 0.50520
55.00 0.48992
55.50 0.47365
56.00 0.45421
56.50 0.43468
57.00 0.41553
57.50 0.39648
58.00 0.37735
58.50 0.35814
59.00 0.33886
59.50 0.32121
60.00 0.30392
60.50 0.28657
61.00 0.26837
61.50 0.24950
62.00 0.23059
62.50 0.21164
63.00 0.19491
63.50 0.18028
64.00 0.16561
64.50 0.15091
65.00 0.13755
65.50 0.12632
66.00 0.11616
66.50 0.10725
67.00 0.09833
67.50 0.08940
68.00 0.08046
68.50 0.07400
69.00 0.06875
69.50 0.06351
70.00 0.05826
70.50 0.05304
71.00 0.04824
71.50 0.04343
72.00 0.03862
72.50 0.03506
73.00 0.03268
73.50 0.03031
74.00 0.02795
74.50 0.02561
75.00 0.02328
75.50 0.02095
76.00 0.01862
76.50 0.01698
77.00 0.01572
77.50 0.01445
78.00 0.01318
78.50 0.01200
79.00 0.01101
79.50 0.01003
80.00 0.00904
80.50 0.00834
81.00 0.00770
81.50 0.00705
82.00 0.00647
82.50 0.00600
83.00 0.00553
83.50 0.00506
84.00 0.00465
84.50 0.00432
85.00 0.00400
85.50 0.00381
86.00 0.00362
86.50 0.00344
87.00 0.00325
87.50 0.00306
88.00 0.00296
88.50 0.00288
89.00 0.00280
89.50 0.00272
90.00 0.00264
90.00 0.00264
90.50 0.00272
91.00 0.00280
91.50 0.00288
92.00 0.00296
92.50 0.00306
93.00 0.00325
93.50 0.00344
94.00 0.00362
94.50 0.00381
95.00 0.00400
95.50 0.00432
96.00 0.00465
96.50 0.00506
97.00 0.00553
97.50 0.00600
98.00 0.00647
98.50 0.00705
99.00 0.00770
99.50 0.00834
100.00 0.00904
100.50 0.01003
101.00 0.01101
101.50 0.01200
102.00 0.01318
102.50 0.01445
103.00 0.01572
103.50 0.01698
104.00 0.01862
104.50 0.02095
105.00 0.02328
105.50 0.02561
106.00 0.02795
106.50 0.03031
107.00 0.03268
107.50 0.03506
108.00 0.03862
108.50 0.04343
109.00 0.04824
109.50 0.05304
110.00 0.05826
110.50 0.06351
111.00 0.06875
111.50 0.07400
112.00 0.08046
112.50 0.08940
113.00 0.09833
113.50 0.10725
114.00 0.11616
114.50 0.12632
115.00 0.13755
115.50 0.15091
116.00 0.16561
116.50 0.18028
117.00 0.19491
117.50 0.21164
118.00 0.23059
118.50 0.24950
119.00 0.26837
119.50 0.28657
120.00 0.30392
120.50 0.32121
121.00 0.33886
121.50 0.35814
122.00 0.37735
122.50 0.39648
123.00 0.41553
123.50 0.43468
124.00 0.45421
124.50 0.47365
125.00 0.48992
125.50 0.50520
126.00 0.52041
126.50 0.53596
127.00 0.55210
127.50 0.56818
128.00 0.58420
128.50 0.60056
129.00 0.61928
129.50 0.63546
130.00 0.65161
130.50 0.66774
131.00 0.68383
131.50 0.70233
132.00 0.72015
132.50 0.73723
133.00 0.75429
133.50 0.77287
134.00 0.79173
134.50 0.81059
135.00 0.83031
135.50 0.85115
136.00 0.87151
136.50 0.89189
137.00 0.91241
137.50 0.93361
138.00 0.95482
138.50 0.97680
139.00 0.99949
139.50 1.02184
140.00 1.04420
140.50 1.06657
141.00 1.08907
141.50 1.11206
142.00 1.13512
142.50 1.15819
143.00 1.18127
143.50 1.20385
144.00 1.22460
144.50 1.24535
145.00 1.26614
145.50 1.28723
146.00 1.30833
146.50 1.32942
147.00 1.34971
147.50 1.36843
148.00 1.38717
148.50 1.40592
149.00 1.42262
149.50 1.43829
150.00 1.45396
150.50 1.46964
151.00 1.48661
151.50 1.50451
152.00 1.52244
152.50 1.53980
153.00 1.55318
153.50 1.56660
154.00 1.58005
154.50 1.59354
155.00 1.60705
155.50 1.62024
156.00 1.63329
156.50 1.64592
157.00 1.65310
157.50 1.66032
158.00 1.66759
158.50 1.67490
159.00 1.68226
159.50 1.68970
160.00 1.69758
160.50 1.70254
161.00 1.70646
161.50 1.71045
162.00 1.71451
162.50 1.71865
163.00 1.72286
163.50 1.72622
164.00 1.72959
164.50 1.73303
165.00 1.73538
165.50 1.73704
166.00 1.73878
166.50 1.74060
167.00 1.74006
167.50 1.73933
168.00 1.73867
168.50 1.73820
169.00 1.73923
169.50 1.74037
170.00 1.73862
170.50 1.73659
171.00 1.73467
171.50 1.73286
172.00 1.73138
172.50 1.73036
173.00 1.72900
173.50 1.72660
174.00 1.72432
174.50 1.72217
175.00 1.72032
175.50 1.71871
176.00 1.71723
176.50 1.71588
177.00 1.71465
177.50 1.71367
178.00 1.71302
178.50 1.71251
179.00 1.71213
179.50 1.71190
180.00 1.71180
180.00 1.71180
180.50 1.71190
181.00 1.71213
181.50 1.71251
182.00 1.71302
182.50 1.71367
183.00 1.71465
183.50 1.71588
184.00 1.71723
184.50 1.71871
185.00 1.72032
185.50 1.72217
186.00 1.72432
186.50 1.72660
187.00 1.72900
187.50 1.73036
188.00 1.73138
188.50 1.73286
189.00 1.73467
189.50 1.73659
190.00 1.73862
190.50 1.74037
191.00 1.73923
191.50 1.73820
192.00 1.73867
192.50 1.73933
193.00 1.74006
193.50 1.74060
194.00 1.73878
194.50 1.73704
195.00 1.73538
195.50 1.73303
196.00 1.72959
196.50 1.72622
197.00 1.72286
197.50 1.71865
198.00 1.71451
198.50 1.71045
199.00 1.70646
199.50 1.70254
200.00 1.69758
200.50 1.68970
201.00 1.68226
201.50 1.67490
202.00 1.66759
202.50 1.66032
203.00 1.65310
203.50 1.64592
204.00 1.63329
204.50 1.62024
205.00 1.60705
205.50 1.59354
206.00 1.58005
206.50 1.56660
207.00 1.55318
207.50 1.53980
208.00 1.52244
208.50 1.50451
209.00 1.48661
209.50 1.46964
210.00 1.45396
210.50 1.43829
211.00 1.42262
211.50 1.40592
212.00 1.38717
212.50 1.36843
213.00 1.34971
213.50 1.32942
214.00 1.30833
214.50 1.28723
215.00 1.26614
215.50 1.24535
216.00 1.22460
216.50 1.20385
217.00 1.18127
217.50 1.15819
218.00 1.13512
218.50 1.11206
219.00 1.08907
219.50 1.06657
220.00 1.04420
220.50 1.02184
221.00 0.99949
221.50 0.97680
222.00 0.95482
222.50 0.93361
223.00 0.91241
223.50 0.89189
224.00 0.87151
224.50 0.85115
225.00 0.83031
225.50 0.81059
226.00 0.79173
226.50 0.77287
227.00 0.75429
227.50 0.73723
228.00 0.72015
228.50 0.70233
229.00 0.68383
229.50 0.66774
230.00 0.65161
230.50 0.63546
231.00 0.61928
231.50 0.60056
232.00 0.58420
232.50 0.56818
233.00 0.55210
233.50 0.53596
234.00 0.52041
234.50 0.50520
235.00 0.48992
235.50 0.47365
236.00 0.45421
236.50 0.43468
237.00 0.41553
237.50 0.39648
238.00 0.37735
238.50 0.35814
239.00 0.33886
239.50 0.32121
240.00 0.30392
240.50 0.28657
241.00 0.26837
241.50 0.24950
242.00 0.23059
242.50 0.21164
243.00 0.19491
243.50 0.18028
244.00 0.16561
244.50 0.15091
245.00 0.13755
245.50 0.12632
246.00 0.11616
246.50 0.10725
247.00 0.09833
247.50 0.08940
248.00 0.08046
248.50 0.07400
249.00 0.06875
249.50 0.06351
250.00 0.05826
250.50 0.05304
251.00 0.04824
251.50 0.04343
252.00 0.03862
252.50 0.03506
253.00 0.03268
253.50 0.03031
254.00 0.02795
254.50 0.02561
255.00 0.02328
255.50 0.02095
256.00 0.01862
256.50 0.01698
257.00 0.01572
257.50 0.01445
258.00 0.01318
258.50 0.01200
259.00 0.01101
259.50 0.01003
260.00 0.00904
260.50 0.00834
261.00 0.00770
261.50 0.00705
262.00 0.00647
262.50 0.00600
263.00 0.00553
263.50 0.00506
264.00 0.00465
264.50 0.00432
265.00 0.00400
265.50 0.00381
266.00 0.00362
266.50 0.00344
267.00 0.00325
267.50 0.00306
268.00 0.00296
268.50 0.00288
269.00 0.00280
269.50 0.00272
270.00 0.00264
270.00 0.00264
270.50 0.00272
271.00 0.00280
271.50 0.00288
272.00 0.00296
272.50 0.00306
273.00 0.00325
273.50 0.00344
274.00 0.00362
274.50 0.00381
275.00 0.00400
275.50 0.00432
276.00 0.00465
276.50 0.00506
277.00 0.00553
277.50 0.00600
278.00 0.00647
278.50 0.00705
279.00 0.00770
279.50 0.00834
280.00 0.00904
280.50 0.01003
281.00 0.01101
281.50 0.01200
282.00 0.01318
282.50 0.01445
283.00 0.01572
283.50 0.01698
284.00 0.01862
284.50 0.02095
285.00 0.02328
285.50 0.02561
286.00 0.02795
286.50 0.03031
287.00 0.03268
287.50 0.03506
288.00 0.03862
288.50 0.04343
289.00 0.04824
289.50 0.05304
290.00 0.05826
290.50 0.06351
291.00 0.06875
291.50 0.07400
292.00 0.08046
292.50 0.08940
293.00 0.09833
293.50 0.10725
294.00 0.11616
294.50 0.12632
295.00 0.13755
295.50 0.15091
296.00 0.16561
296.50 0.18028
297.00 0.19491
297.50 0.21164
298.00 0.23059
298.50 0.24950
299.00 0.26837
299.50 0.28657
300.00 0.30392
300.50 0.32121
301.00 0.33886
301.50 0.35814
302.00 0.37735
302.50 0.39648
303.00 0.41553
303.50 0.43468
304.00 0.45421
304.50 0.47365
305.00 0.48992
305.50 0.50520
306.00 0.52041
306.50 0.53596
307.00 0.55210
307.50 0.56818
308.00 0.58420
308.50 0.60056
309.00 0.61928
309.50 0.63546
310.00 0.65161
310.50 0.66774
311.00 0.68383
311.50 0.70233
312.00 0.72015
312.50 0.73723
313.00 0.75429
313.50 0.77287
314.00 0.79173
314.50 0.81059
315.00 0.83031
315.50 0.85115
316.00 0.87151
316.50 0.89189
317.00 0.91241
317.50 0.93361
318.00 0.95482
318.50 0.97680
319.00 0.99949
319.50 1.02184
320.00 1.04420
320.50 1.06657
321.00 1.08907
321.50 1.11206
322.00 1.13512
322.50 1.15819
323.00 1.18127
323.50 1.20385
324.00 1.22460
324.50 1.24535
325.00 1.26614
325.50 1.28723
326.00 1.30833
326.50 1.32942
327.00 1.34971
327.50 1.36843
328.00 1.38717
328.50 1.40592
329.00 1.42262
329.50 1.43829
330.00 1.45396
330.50 1.46964
331.00 1.48661
331.50 1.50451
332.00 1.52244
332.50 1.53980
333.00 1.55318
333.50 1.56660
334.00 1.58005
334.50 1.59354
335.00 1.60705
335.50 1.62024
336.00 1.63329
336.50 1.64592
337.00 1.65310
337.50 1.66032
338.00 1.66759
338.50 1.67490
339.00 1.68226
339.50 1.68970
340.00 1.69758
340.50 1.70254
341.00 1.70646
341.50 1.71045
342.00 1.71451
342.50 1.71865
343.00 1.72286
343.50 1.72622
344.00 1.72959
344.50 1.73303
345.00 1.73538
345.50 1.73704
346.00 1.73878
346.50 1.74060
347.00 1.74006
347.50 1.73933
348.00 1.73867
348.50 1.73820
349.00 1.73923
349.50 1.74037
350.00 1.73862
350.50 1.73659
351.00 1.73467
351.50 1.73286
352.00 1.73138
352.50 1.73036
353.00 1.72900
353.50 1.72660
354.00 1.72432
354.50 1.72217
355.00 1.72032
355.50 1.71871
356.00 1.71723
356.50 1.71588
357.00 1.71465
357.50 1.71367
358.00 1.71302
358.50 1.71251
359.00 1.71213
359.50 1.71190
360.00 1.71180
