phi[deg] B[T]
0.00 1.49219
0.50 1.49196
1.00 1.49185
1.50 1.49185
2.00 1.49197
2.50 1.49221
3.00 1.49262
3.50 1.49323
4.00 1.49395
4.50 1.49479
5.00 1.49575
5.50 1.49682
6.00 1.49733
6.50 1.49778
7.00 1.49834
7.50 1.49901
8.00 1.50057
8.50 1.50238
9.00 1.50430
9.50 1.50593
10.00 1.50747
10.50 1.50822
11.00 1.50832
11.50 1.50850
12.00 1.50878
12.50 1.50915
13.00 1.50961
13.50 1.51086
14.00 1.51245
14.50 1.51333
15.00 1.51305
15.50 1.51179
16.00 1.51060
16.50 1.50948
17.00 1.50842
17.50 1.50743
18.00 1.50651
18.50 1.50565
19.00 1.50511
19.50 1.50634
20.00 1.50507
20.50 1.49984
21.00 1.49461
21.50 1.48939
22.00 1.48418
22.50 1.47896
23.00 1.47376
23.50 1.46856
24.00 1.46337
24.50 1.45818
25.00 1.45377
25.50 1.44327
26.00 1.43220
26.50 1.42110
27.00 1.40999
27.50 1.39885
28.00 1.38770
28.50 1.37654
29.00 1.36535
29.50 1.35390
30.00 1.34234
30.50 1.32879
31.00 1.31254
31.50 1.29627
32.00 1.27998
32.50 1.26275
33.00 1.24547
33.50 1.22783
34.00 1.20940
34.50 1.19095
35.00 1.17248
35.50 1.15382
36.00 1.13211
36.50 1.11037
37.00 1.08618
37.50 1.06181
38.00 1.03742
38.50 1.01306
39.00 0.98912
39.50 0.96435
40.00 0.93972
40.50 0.91535
41.00 0.89098
41.50 0.86666
42.00 0.84252
42.50 0.81849
43.00 0.79446
43.50 0.77122
44.00 0.74842
44.50 0.72564
45.00 0.70306
45.50 0.68273
46.00 0.66232
46.50 0.64194
47.00 0.62266
47.50 0.60599
48.00 0.58935
48.50 0.57198
49.00 0.55525
49.50 0.54230
50.00 0.52934
50.50 0.51638
51.00 0.50250
51.50 0.48800
52.00 0.47516
52.50 0.46400
53.00 0.45278
53.50 0.44286
54.00 0.43401
54.50 0.42073
55.00 0.40608
55.50 0.39135
56.00 0.37655
56.50 0.36167
57.00 0.34672
57.50 0.33271
58.00 0.31840
58.50 0.30400
59.00 0.28951
59.50 0.27493
60.00 0.26027
60.50 0.24452
61.00 0.22573
61.50 0.20686
62.00 0.19332
62.50 0.18082
63.00 0.16828
63.50 0.15571
64.00 0.14312
64.50 0.12979
65.00 0.11611
65.50 0.10564
66.00 0.09864
66.50 0.09164
67.00 0.08463
67.50 0.07761
68.00 0.07060
68.50 0.06358
69.00 0.05657
69.50 0.05019
70.00 0.04709
70.50 0.04400
71.00 0.04091
71.50 0.03783
72.00 0.03474
72.50 0.03166
73.00 0.02859
73.50 0.02552
74.00 0.02245
74.50 0.01973
75.00 0.01847
75.50 0.01718
76.00 0.01588
76.50 0.01458
77.00 0.01329
77.50 0.01199
78.00 0.01069
78.50 0.00982
79.00 0.00918
79.50 0.00854
80.00 0.00789
80.50 0.00724
81.00 0.00659
81.50 0.00613
82.00 0.00575
82.50 0.00539
83.00 0.00502
83.50 0.00465
84.00 0.00429
84.50 0.00396
85.00 0.00373
85.50 0.00353
86.00 0.00340
86.50 0.00327
87.00 0.00313
87.50 0.00300
88.00 0.00290
88.50 0.00284
89.00 0.00278
89.50 0.00272
90.00 0.00266
90.00 0.00266
90.50 0.00272
91.00 0.00278
91.50 0.00284
92.00 0.00290
92.50 0.00300
93.00 0.00313
93.50 0.00327
94.00 0.00340
94.50 0.00353
95.00 0.00373
95.50 0.00396
96.00 0.00429
96.50 0.00465
97.00 0.00502
97.50 0.00539
98.00 0.00575
98.50 0.00613
99.00 0.00659
99.50 0.00724
100.00 0.00789
100.50 0.00854
101.00 0.00918
101.50 0.00982
102.00 0.01069
102.50 0.01199
103.00 0.01329
103.50 0.01458
104.00 0.01588
104.50 0.01718
105.00 0.01847
105.50 0.01973
106.00 0.02245
106.50 0.02552
107.00 0.02859
107.50 0.03166
108.00 0.03474
108.50 0.03783
109.00 0.04091
109.50 0.04400
110.00 0.04709
110.50 0.05019
111.00 0.05657
111.50 0.06358
112.00 0.07060
112.50 0.07761
113.00 0.08463
113.50 0.09164
114.00 0.09864
114.50 0.10564
115.00 0.11611
115.50 0.12979
116.00 0.14312
116.50 0.15571
117.00 0.16828
117.50 0.18082
118.00 0.19332
118.50 0.20686
119.00 0.22573
119.50 0.24452
120.00 0.26027
120.50 0.27493
121.00 0.28951
121.50 0.30400
122.00 0.31840
122.50 0.33271
123.00 0.34672
123.50 0.36167
124.00 0.37655
124.50 0.39135
125.00 0.40608
125.50 0.42073
126.00 0.43401
126.50 0.44286
127.00 0.45278
127.50 0.46400
128.00 0.47516
128.50 0.48800
129.00 0.50250
129.50 0.51638
130.00 0.52934
130.50 0.54230
131.00 0.55525
131.50 0.57198
132.00 0.58935
132.50 0.60599
133.00 0.62266
133.50 0.64194
134.00 0.66232
134.50 0.68273
135.00 0.70306
135.50 0.72564
136.00 0.74842
136.50 0.77122
137.00 0.79446
137.50 0.81849
138.00 0.84252
138.50 0.86666
139.00 0.89098
139.50 0.91535
140.00 0.93972
140.50 0.96435
141.00 0.98912
141.50 1.01306
142.00 1.03742
142.50 1.06181
143.00 1.08618
143.50 1.11037
144.00 1.13211
144.50 1.15382
145.00 1.17248
145.50 1.19095
146.00 1.20940
146.50 1.22783
147.00 1.24547
147.50 1.26275
148.00 1.27998
148.50 1.29627
149.00 1.31254
149.50 1.32879
150.00 1.34234
150.50 1.35390
151.00 1.36535
151.50 1.37654
152.00 1.38770
152.50 1.39885
153.00 1.40999
153.50 1.42110
154.00 1.43220
154.50 1.44327
155.00 1.45377
155.50 1.45818
156.00 1.46337
156.50 1.46856
157.00 1.47376
157.50 1.47896
158.00 1.48418
158.50 1.48939
159.00 1.49461
159.50 1.49984
160.00 1.50507
160.50 1.50634
161.00 1.50511
161.50 1.50565
162.00 1.50651
162.50 1.50743
163.00 1.50842
163.50 1.50948
164.00 1.51060
164.50 1.51179
165.00 1.51305
165.50 1.51333
166.00 1.51245
166.50 1.51086
167.00 1.50961
167.50 1.50915
168.00 1.50878
168.50 1.50850
169.00 1.50832
169.50 1.50822
170.00 1.50747
170.50 1.50593
171.00 1.50430
171.50 1.50238
172.00 1.50057
172.50 1.49901
173.00 1.49834
173.50 1.49778
174.00 1.49733
174.50 1.49682
175.00 1.49575
175.50 1.49479
176.00 1.49395
176.50 1.49323
177.00 1.49262
177.50 1.49221
178.00 1.49197
178.50 1.49185
179.00 1.49185
179.50 1.49196
180.00 1.49219
180.00 1.49219
180.50 1.49196
181.00 1.49185
181.50 1.49185
182.00 1.49197
182.50 1.49221
183.00 1.49262
183.50 1.49323
184.00 1.49395
184.50 1.49479
185.00 1.49575
185.50 1.49682
186.00 1.49733
186.50 1.49778
187.00 1.49834
187.50 1.49901
188.00 1.50057
188.50 1.50238
189.00 1.50430
189.50 1.50593
190.00 1.50747
190.50 1.50822
191.00 1.50832
191.50 1.50850
192.00 1.50878
192.50 1.50915
193.00 1.50961
193.50 1.51086
194.00 1.51245
194.50 1.51333
195.00 1.51305
195.50 1.51179
196.00 1.51060
196.50 1.50948
197.00 1.50842
197.50 1.50743
198.00 1.50651
198.50 1.50565
199.00 1.50511
199.50 1.50634
200.00 1.50507
200.50 1.49984
201.00 1.49461
201.50 1.48939
202.00 1.48418
202.50 1.47896
203.00 1.47376
203.50 1.46856
204.00 1.46337
204.50 1.45818
205.00 1.45377
205.50 1.44327
206.00 1.43220
206.50 1.42110
207.00 1.40999
207.50 1.39885
208.00 1.38770
208.50 1.37654
209.00 1.36535
209.50 1.35390
210.00 1.34234
210.50 1.32879
211.00 1.31254
211.50 1.29627
212.00 1.27998
212.50 1.26275
213.00 1.24547
213.50 1.22783
214.00 1.20940
214.50 1.19095
215.00 1.17248
215.50 1.15382
216.00 1.13211
216.50 1.11037
217.00 1.08618
217.50 1.06181
218.00 1.03742
218.50 1.01306
219.00 0.98912
219.50 0.96435
220.00 0.93972
220.50 0.91535
221.00 0.89098
221.50 0.86666
222.00 0.84252
222.50 0.81849
223.00 0.79446
223.50 0.77122
224.00 0.74842
224.50 0.72564
225.00 0.70306
225.50 0.68273
226.00 0.66232
226.50 0.64194
227.00 0.62266
227.50 0.60599
228.00 0.58935
228.50 0.57198
229.00 0.55525
229.50 0.54230
230.00 0.52934
230.50 0.51638
231.00 0.50250
231.50 0.48800
232.00 0.47516
232.50 0.46400
233.00 0.45278
233.50 0.44286
234.00 0.43401
234.50 0.42073
235.00 0.40608
235.50 0.39135
236.00 0.37655
236.50 0.36167
237.00 0.34672
237.50 0.33271
238.00 0.31840
238.50 0.30400
239.00 0.28951
239.50 0.27493
240.00 0.26027
240.50 0.24452
241.00 0.22573
241.50 0.20686
242.00 0.19332
242.50 0.18082
243.00 0.16828
243.50 0.15571
244.00 0.14312
244.50 0.12979
245.00 0.11611
245.50 0.10564
246.00 0.09864
246.50 0.09164
247.00 0.08463
247.50 0.07761
248.00 0.07060
248.50 0.06358
249.00 0.05657
249.50 0.05019
250.00 0.04709
250.50 0.04400
251.00 0.04091
251.50 0.03783
252.00 0.03474
252.50 0.03166
253.00 0.02859
253.50 0.02552
254.00 0.02245
254.50 0.01973
255.00 0.01847
255.50 0.01718
256.00 0.01588
256.50 0.01458
257.00 0.01329
257.50 0.01199
258.00 0.01069
258.50 0.00982
259.00 0.00918
259.50 0.00854
260.00 0.00789
260.50 0.00724
261.00 0.00659
261.50 0.00613
262.00 0.00575
262.50 0.00539
263.00 0.00502
263.50 0.00465
264.00 0.00429
264.50 0.00396
265.00 0.00373
265.50 0.00353
266.00 0.00340
266.50 0.00327
267.00 0.00313
267.50 0.00300
268.00 0.00290
268.50 0.00284
269.00 0.00278
269.50 0.00272
270.00 0.00266
270.00 0.00266
270.50 0.00272
271.00 0.00278
271.50 0.00284
272.00 0.00290
272.50 0.00300
273.00 0.00313
273.50 0.00327
274.00 0.00340
274.50 0.00353
275.00 0.00373
275.50 0.00396
276.00 0.00429
276.50 0.00465
277.00 0.00502
277.50 0.00539
278.00 0.00575
278.50 0.00613
279.00 0.00659
279.50 0.00724
280.00 0.00789
280.50 0.00854
281.00 0.00918
281.50 0.00982
282.00 0.01069
282.50 0.01199
283.00 0.01329
283.50 0.01458
284.00 0.01588
284.50 0.01718
285.00 0.01847
285.50 0.01973
286.00 0.02245
286.50 0.02552
287.00 0.02859
287.50 0.03166
288.00 0.03474
288.50 0.03783
289.00 0.04091
289.50 0.04400
290.00 0.04709
290.50 0.05019
291.00 0.05657
291.50 0.06358
292.00 0.07060
292.50 0.07761
293.00 0.08463
293.50 0.09164
294.00 0.09864
294.50 0.10564
295.00 0.11611
295.50 0.12979
296.00 0.14312
296.50 0.15571
297.00 0.16828
297.50 0.18082
298.00 0.19332
298.50 0.20686
299.00 0.22573
299.50 0.24452
300.00 0.26027
300.50 0.27493
301.00 0.28951
301.50 0.30400
302.00 0.31840
302.50 0.33271
303.00 0.34672
303.50 0.36167
304.00 0.37655
304.50 0.39135
305.00 0.40608
305.50 0.42073
306.00 0.43401
306.50 0.44286
307.00 0.45278
307.50 0.46400
308.00 0.47516
308.50 0.48800
309.00 0.50250
309.50 0.51638
310.00 0.52934
310.50 0.54230
311.00 0.55525
311.50 0.57198
312.00 0.58935
312.50 0.60599
313.00 0.62266
313.50 0.64194
314.00 0.66232
314.50 0.68273
315.00 0.70306
315.50 0.72564
316.00 0.74842
316.50 0.77122
317.00 0.79446
317.50 0.81849
318.00 0.84252
318.50 0.86666
319.00 0.89098
319.50 0.91535
320.00 0.93972
320.50 0.96435
321.00 0.98912
321.50 1.01306
322.00 1.03742
322.50 1.06181
323.00 1.08618
323.50 1.11037
324.00 1.13211
324.50 1.15382
325.00 1.17248
325.50 1.19095
326.00 1.20940
326.50 1.22783
327.00 1.24547
327.50 1.26275
328.00 1.27998
328.50 1.29627
329.00 1.31254
329.50 1.32879
330.00 1.34234
330.50 1.35390
331.00 1.36535
331.50 1.37654
332.00 1.38770
332.50 1.39885
333.00 1.40999
333.50 1.42110
334.00 1.43220
334.50 1.44327
335.00 1.45377
335.50 1.45818
336.00 1.46337
336.50 1.46856
337.00 1.47376
337.50 1.47896
338.00 1.48418
338.50 1.48939
339.00 1.49461
339.50 1.49984
340.00 1.50507
340.50 1.50634
341.00 1.50511
341.50 1.50565
342.00 1.50651
342.50 1.50743
343.00 1.50842
343.50 1.50948
344.00 1.51060
344.50 1.51179
345.00 1.51305
345.50 1.51333
346.00 1.51245
346.50 1.51086
347.00 1.50961
347.50 1.50915
348.00 1.50878
348.50 1.50850
349.00 1.50832
349.50 1.50822
350.00 1.50747
350.50 1.50593
351.00 1.50430
351.50 1.50238
352.00 1.50057
352.50 1.49901
353.00 1.49834
353.50 1.49778
354.00 1.49733
354.50 1.49682
355.00 1.49575
355.50 1.49479
356.00 1.49395
356.50 1.49323
357.00 1.49262
357.50 1.49221
358.00 1.49197
358.50 1.49185
359.00 1.49185
359.50 1.49196
360.00 1.49219
