phi[deg] B[T]
0.00 1.46598
0.50 1.46478
1.00 1.46384
1.50 1.46212
2.00 1.45852
2.50 1.45521
3.00 1.45208
3.50 1.44651
4.00 1.44064
4.50 1.43472
5.00 1.42803
5.50 1.42103
6.00 1.41077
6.50 1.40045
7.00 1.39053
7.50 1.38116
8.00 1.37071
8.50 1.35419
9.00 1.33758
9.50 1.32144
10.00 1.30839
10.50 1.29101
11.00 1.27197
11.50 1.25281
12.00 1.23427
12.50 1.21617
13.00 1.19258
13.50 1.16687
14.00 1.14100
14.50 1.11621
15.00 1.09045
15.50 1.06284
16.00 1.03504
16.50 1.00713
17.00 0.97922
17.50 0.94624
18.00 0.91192
18.50 0.87738
19.00 0.84263
19.50 0.80765
20.00 0.77365
20.50 0.73942
21.00 0.70495
21.50 0.67025
22.00 0.62998
22.50 0.58883
23.00 0.55237
23.50 0.51574
24.00 0.47893
24.50 0.44055
25.00 0.40591
25.50 0.37729
26.00 0.34857
26.50 0.31978
27.00 0.29090
27.50 0.25917
28.00 0.23339
28.50 0.21339
29.00 0.19606
29.50 0.17874
30.00 0.16142
30.50 0.14411
31.00 0.12808
31.50 0.11306
32.00 0.10304
32.50 0.09460
33.00 0.08656
33.50 0.07895
34.00 0.07135
34.50 0.06375
35.00 0.05617
35.50 0.04891
36.00 0.04468
36.50 0.04045
37.00 0.03622
37.50 0.03297
38.00 0.02989
38.50 0.02682
39.00 0.02375
39.50 0.02127
40.00 0.01913
40.50 0.01730
41.00 0.01579
41.50 0.01428
42.00 0.01278
42.50 0.01128
43.00 0.01025
43.50 0.00936
44.00 0.00847
44.50 0.00758
45.00 0.00669
45.50 0.00615
46.00 0.00561
46.50 0.00507
47.00 0.00452
47.50 0.00399
48.00 0.00367
48.50 0.00336
49.00 0.00306
49.50 0.00275
50.00 0.00244
50.50 0.00220
51.00 0.00199
51.50 0.00181
52.00 0.00168
52.50 0.00154
53.00 0.00140
53.50 0.00127
54.00 0.00114
54.50 0.00101
55.00 0.00095
55.50 0.00090
56.00 0.00084
56.50 0.00078
57.00 0.00073
57.50 0.00067
58.00 0.00061
58.50 0.00057
59.00 0.00054
59.50 0.00052
60.00 0.00049
60.50 0.00047
61.00 0.00044
61.50 0.00042
62.00 0.00039
62.50 0.00038
63.00 0.00037
63.50 0.00035
64.00 0.00034
64.50 0.00033
65.00 0.00032
65.50 0.00031
66.00 0.00030
66.50 0.00029
67.00 0.00028
67.50 0.00028
68.00 0.00027
68.50 0.00026
69.00 0.00026
69.50 0.00025
70.00 0.00024
70.50 0.00024
71.00 0.00023
71.50 0.00022
72.00 0.00022
72.50 0.00021
73.00 0.00020
73.50 0.00020
74.00 0.00019
74.50 0.00019
75.00 0.00018
75.50 0.00017
76.00 0.00017
76.50 0.00016
77.00 0.00016
77.50 0.00015
78.00 0.00014
78.50 0.00014
79.00 0.00013
79.50 0.00013
80.00 0.00012
80.50 0.00011
81.00 0.00011
81.50 0.00010
82.00 0.00010
82.50 0.00009
83.00 0.00009
83.50 0.00008
84.00 0.00007
84.50 0.00007
85.00 0.00006
85.50 0.00006
86.00 0.00005
86.50 0.00005
87.00 0.00004
87.50 0.00003
88.00 0.00003
88.50 0.00003
89.00 0.00002
89.50 0.00002
90.00 0.00002
90.00 0.00002
90.50 0.00002
91.00 0.00002
91.50 0.00003
92.00 0.00003
92.50 0.00003
93.00 0.00004
93.50 0.00005
94.00 0.00005
94.50 0.00006
95.00 0.00006
95.50 0.00007
96.00 0.00007
96.50 0.00008
97.00 0.00009
97.50 0.00009
98.00 0.00010
98.50 0.00010
99.00 0.00011
99.50 0.00011
100.00 0.00012
100.50 0.00013
101.00 0.00013
101.50 0.00014
102.00 0.00014
102.50 0.00015
103.00 0.00016
103.50 0.00016
104.00 0.00017
104.50 0.00017
105.00 0.00018
105.50 0.00019
106.00 0.00019
106.50 0.00020
107.00 0.00020
107.50 0.00021
108.00 0.00022
108.50 0.00022
109.00 0.00023
109.50 0.00024
110.00 0.00024
110.50 0.00025
111.00 0.00026
111.50 0.00026
112.00 0.00027
112.50 0.00028
113.00 0.00028
113.50 0.00029
114.00 0.00030
114.50 0.00031
115.00 0.00032
115.50 0.00033
116.00 0.00034
116.50 0.00035
117.00 0.00037
117.50 0.00038
118.00 0.00039
118.50 0.00042
119.00 0.00044
119.50 0.00047
120.00 0.00049
120.50 0.00052
121.00 0.00054
121.50 0.00057
122.00 0.00061
122.50 0.00067
123.00 0.00073
123.50 0.00078
124.00 0.00084
124.50 0.00090
125.00 0.00095
125.50 0.00101
126.00 0.00114
126.50 0.00127
127.00 0.00140
127.50 0.00154
128.00 0.00168
128.50 0.00181
129.00 0.00199
129.50 0.00220
130.00 0.00244
130.50 0.00275
131.00 0.00306
131.50 0.00336
132.00 0.00367
132.50 0.00399
133.00 0.00452
133.50 0.00507
134.00 0.00561
134.50 0.00615
135.00 0.00669
135.50 0.00758
136.00 0.00847
136.50 0.00936
137.00 0.01025
137.50 0.01128
138.00 0.01278
138.50 0.01428
139.00 0.01579
139.50 0.01730
140.00 0.01913
140.50 0.02127
141.00 0.02375
141.50 0.02682
142.00 0.02989
142.50 0.03297
143.00 0.03622
143.50 0.04045
144.00 0.04468
144.50 0.04891
145.00 0.05617
145.50 0.06375
146.00 0.07135
146.50 0.07895
147.00 0.08656
147.50 0.09460
148.00 0.10304
148.50 0.11306
149.00 0.12808
149.50 0.14411
150.00 0.16142
150.50 0.17874
151.00 0.19606
151.50 0.21339
152.00 0.23339
152.50 0.25917
153.00 0.29090
153.50 0.31978
154.00 0.34857
154.50 0.37729
155.00 0.40591
155.50 0.44055
156.00 0.47893
156.50 0.51574
157.00 0.55237
157.50 0.58883
158.00 0.62998
158.50 0.67025
159.00 0.70495
159.50 0.73942
160.00 0.77365
160.50 0.80765
161.00 0.84263
161.50 0.87738
162.00 0.91192
162.50 0.94624
163.00 0.97922
163.50 1.00713
164.00 1.03504
164.50 1.06284
165.00 1.09045
165.50 1.11621
166.00 1.14100
166.50 1.16687
167.00 1.19258
167.50 1.21617
168.00 1.23427
168.50 1.25281
169.00 1.27197
169.50 1.29101
170.00 1.30839
170.50 1.32144
171.00 1.33758
171.50 1.35419
172.00 1.37071
172.50 1.38116
173.00 1.39053
173.50 1.40045
174.00 1.41077
174.50 1.42103
175.00 1.42803
175.50 1.43472
176.00 1.44064
176.50 1.44651
177.00 1.45208
177.50 1.45521
178.00 1.45852
178.50 1.46212
179.00 1.46384
179.50 1.46478
180.00 1.46598
180.00 1.46598
180.50 1.46478
181.00 1.46384
181.50 1.46212
182.00 1.45852
182.50 1.45521
183.00 1.45208
183.50 1.44651
184.00 1.44064
184.50 1.43472
185.00 1.42803
185.50 1.42103
186.00 1.41077
186.50 1.40045
187.00 1.39053
187.50 1.38116
188.00 1.37071
188.50 1.35419
189.00 1.33758
189.50 1.32144
190.00 1.30839
190.50 1.29101
191.00 1.27197
191.50 1.25281
192.00 1.23427
192.50 1.21617
193.00 1.19258
193.50 1.16687
194.00 1.14100
194.50 1.11621
195.00 1.09045
195.50 1.06284
196.00 1.03504
196.50 1.00713
197.00 0.97922
197.50 0.94624
198.00 0.91192
198.50 0.87738
199.00 0.84263
199.50 0.80765
200.00 0.77365
200.50 0.73942
201.00 0.70495
201.50 0.67025
202.00 0.62998
202.50 0.58883
203.00 0.55237
203.50 0.51574
204.00 0.47893
204.50 0.44055
205.00 0.40591
205.50 0.37729
206.00 0.34857
206.50 0.31978
207.00 0.29090
207.50 0.25917
208.00 0.23339
208.50 0.21339
209.00 0.19606
209.50 0.17874
210.00 0.16142
210.50 0.14411
211.00 0.12808
211.50 0.11306
212.00 0.10304
212.50 0.09460
213.00 0.08656
213.50 0.07895
214.00 0.07135
214.50 0.06375
215.00 0.05617
215.50 0.04891
216.00 0.04468
216.50 0.04045
217.00 0.03622
217.50 0.03297
218.00 0.02989
218.50 0.02682
219.00 0.02375
219.50 0.02127
220.00 0.01913
220.50 0.01730
221.00 0.01579
221.50 0.01428
222.00 0.01278
222.50 0.01128
223.00 0.01025
223.50 0.00936
224.00 0.00847
224.50 0.00758
225.00 0.00669
225.50 0.00615
226.00 0.00561
226.50 0.00507
227.00 0.00452
227.50 0.00399
228.00 0.00367
228.50 0.00336
229.00 0.00306
229.50 0.00275
230.00 0.00244
230.50 0.00220
231.00 0.00199
231.50 0.00181
232.00 0.00168
232.50 0.00154
233.00 0.00140
233.50 0.00127
234.00 0.00114
234.50 0.00101
235.00 0.00095
235.50 0.00090
236.00 0.00084
236.50 0.00078
237.00 0.00073
237.50 0.00067
238.00 0.00061
238.50 0.00057
239.00 0.00054
239.50 0.00052
240.00 0.00049
240.50 0.00047
241.00 0.00044
241.50 0.00042
242.00 0.00039
242.50 0.00038
243.00 0.00037
243.50 0.00035
244.00 0.00034
244.50 0.00033
245.00 0.00032
245.50 0.00031
246.00 0.00030
246.50 0.00029
247.00 0.00028
247.50 0.00028
248.00 0.00027
248.50 0.00026
249.00 0.00026
249.50 0.00025
250.00 0.00024
250.50 0.00024
251.00 0.00023
251.50 0.00022
252.00 0.00022
252.50 0.00021
253.00 0.00020
253.50 0.00020
254.00 0.00019
254.50 0.00019
255.00 0.00018
255.50 0.00017
256.00 0.00017
256.50 0.00016
257.00 0.00016
257.50 0.00015
258.00 0.00014
258.50 0.00014
259.00 0.00013
259.50 0.00013
260.00 0.00012
260.50 0.00011
261.00 0.00011
261.50 0.00010
262.00 0.00010
262.50 0.00009
263.00 0.00009
263.50 0.00008
264.00 0.00007
264.50 0.00007
265.00 0.00006
265.50 0.00006
266.00 0.00005
266.50 0.00005
267.00 0.00004
267.50 0.00003
268.00 0.00003
268.50 0.00003
269.00 0.00002
269.50 0.00002
270.00 0.00002
270.00 0.00002
270.50 0.00002
271.00 0.00002
271.50 0.00003
272.00 0.00003
272.50 0.00003
273.00 0.00004
273.50 0.00005
274.00 0.00005
274.50 0.00006
275.00 0.00006
275.50 0.00007
276.00 0.00007
276.50 0.00008
277.00 0.00009
277.50 0.00009
278.00 0.00010
278.50 0.00010
279.00 0.00011
279.50 0.00011
280.00 0.00012
280.50 0.00013
281.00 0.00013
281.50 0.00014
282.00 0.00014
282.50 0.00015
283.00 0.00016
283.50 0.00016
284.00 0.00017
284.50 0.00017
285.00 0.00018
285.50 0.00019
286.00 0.00019
286.50 0.00020
287.00 0.00020
287.50 0.00021
288.00 0.00022
288.50 0.00022
289.00 0.00023
289.50 0.00024
290.00 0.00024
290.50 0.00025
291.00 0.00026
291.50 0.00026
292.00 0.00027
292.50 0.00028
293.00 0.00028
293.50 0.00029
294.00 0.00030
294.50 0.00031
295.00 0.00032
295.50 0.00033
296.00 0.00034
296.50 0.00035
297.00 0.00037
297.50 0.00038
298.00 0.00039
298.50 0.00042
299.00 0.00044
299.50 0.00047
300.00 0.00049
300.50 0.00052
301.00 0.00054
301.50 0.00057
302.00 0.00061
302.50 0.00067
303.00 0.00073
303.50 0.00078
304.00 0.00084
304.50 0.00090
305.00 0.00095
305.50 0.00101
306.00 0.00114
306.50 0.00127
307.00 0.00140
307.50 0.00154
308.00 0.00168
308.50 0.00181
309.00 0.00199
309.50 0.00220
310.00 0.00244
310.50 0.00275
311.00 0.00306
311.50 0.00336
312.00 0.00367
312.50 0.00399
313.00 0.00452
313.50 0.00507
314.00 0.00561
314.50 0.00615
315.00 0.00669
315.50 0.00758
316.00 0.00847
316.50 0.00936
317.00 0.01025
317.50 0.01128
318.00 0.01278
318.50 0.01428
319.00 0.01579
319.50 0.01730
320.00 0.01913
320.50 0.02127
321.00 0.02375
321.50 0.02682
322.00 0.02989
322.50 0.03297
323.00 0.03622
323.50 0.04045
324.00 0.04468
324.50 0.04891
325.00 0.05617
325.50 0.06375
326.00 0.07135
326.50 0.07895
327.00 0.08656
327.50 0.09460
328.00 0.10304
328.50 0.11306
329.00 0.12808
329.50 0.14411
330.00 0.16142
330.50 0.17874
331.00 0.19606
331.50 0.21339
332.00 0.23339
332.50 0.25917
333.00 0.29090
333.50 0.31978
334.00 0.34857
334.50 0.37729
335.00 0.40591
335.50 0.44055
336.00 0.47893
336.50 0.51574
337.00 0.55237
337.50 0.58883
338.00 0.62998
338.50 0.67025
339.00 0.70495
339.50 0.73942
340.00 0.77365
340.50 0.80765
341.00 0.84263
341.50 0.87738
342.00 0.91192
342.50 0.94624
343.00 0.97922
343.50 1.00713
344.00 1.03504
344.50 1.06284
345.00 1.09045
345.50 1.11621
346.00 1.14100
346.50 1.16687
347.00 1.19258
347.50 1.21617
348.00 1.23427
348.50 1.25281
349.00 1.27197
349.50 1.29101
350.00 1.30839
350.50 1.32144
351.00 1.33758
351.50 1.35419
352.00 1.37071
352.50 1.38116
353.00 1.39053
353.50 1.40045
354.00 1.41077
354.50 1.42103
355.00 1.42803
355.50 1.43472
356.00 1.44064
356.50 1.44651
357.00 1.45208
357.50 1.45521
358.00 1.45852
358.50 1.46212
359.00 1.46384
359.50 1.46478
360.00 1.46598
