phi[deg] B[T]
0.00 1.53369
0.50 1.53304
1.00 1.53251
1.50 1.53209
2.00 1.53170
2.50 1.53124
3.00 1.53090
3.50 1.53069
4.00 1.53061
4.50 1.53075
5.00 1.53102
5.50 1.53163
6.00 1.53248
6.50 1.53345
7.00 1.53423
7.50 1.53504
8.00 1.53597
8.50 1.53701
9.00 1.53948
9.50 1.54193
10.00 1.54370
10.50 1.54457
11.00 1.54492
11.50 1.54537
12.00 1.54590
12.50 1.54495
13.00 1.54359
13.50 1.54221
14.00 1.54033
14.50 1.53854
15.00 1.53685
15.50 1.53480
16.00 1.53266
16.50 1.53058
17.00 1.52747
17.50 1.52446
18.00 1.52153
18.50 1.51922
19.00 1.51815
19.50 1.51671
20.00 1.51515
20.50 1.51047
21.00 1.50562
21.50 1.50081
22.00 1.49581
22.50 1.48976
23.00 1.48377
23.50 1.47545
24.00 1.46467
24.50 1.45391
25.00 1.44199
25.50 1.42716
26.00 1.41238
26.50 1.39736
27.00 1.38202
27.50 1.36674
28.00 1.35149
28.50 1.33593
29.00 1.31998
29.50 1.30518
30.00 1.29002
30.50 1.27396
31.00 1.25794
31.50 1.24197
32.00 1.22606
32.50 1.21197
33.00 1.19794
33.50 1.18146
34.00 1.16334
34.50 1.14525
35.00 1.12719
35.50 1.10991
36.00 1.09319
36.50 1.07371
37.00 1.05274
37.50 1.03206
38.00 1.01225
38.50 0.99243
39.00 0.97203
39.50 0.95167
40.00 0.93135
40.50 0.91116
41.00 0.89158
41.50 0.87231
42.00 0.85308
42.50 0.83400
43.00 0.81578
43.50 0.79765
44.00 0.78004
44.50 0.76280
45.00 0.74564
45.50 0.72970
46.00 0.71378
46.50 0.69892
47.00 0.68518
47.50 0.67069
48.00 0.65821
48.50 0.64645
49.00 0.63413
49.50 0.62149
50.00 0.60958
50.50 0.59895
51.00 0.59178
51.50 0.58051
52.00 0.56687
52.50 0.55315
53.00 0.53934
53.50 0.52628
54.00 0.51672
54.50 0.50277
55.00 0.48403
55.50 0.46512
56.00 0.44604
56.50 0.42680
57.00 0.40865
57.50 0.39199
58.00 0.36309
58.50 0.33796
59.00 0.31510
59.50 0.29212
60.00 0.26797
60.50 0.24208
61.00 0.21607
61.50 0.19026
62.00 0.17102
62.50 0.15395
63.00 0.13661
63.50 0.11878
64.00 0.10094
64.50 0.08891
65.00 0.07906
65.50 0.06920
66.00 0.05951
66.50 0.05072
67.00 0.04523
67.50 0.03993
68.00 0.03464
68.50 0.02933
69.00 0.02520
69.50 0.02200
70.00 0.01931
70.50 0.01688
71.00 0.01445
71.50 0.01257
72.00 0.01112
72.50 0.00968
73.00 0.00835
73.50 0.00715
74.00 0.00613
74.50 0.00549
75.00 0.00485
75.50 0.00422
76.00 0.00359
76.50 0.00310
77.00 0.00276
77.50 0.00243
78.00 0.00209
78.50 0.00179
79.00 0.00161
79.50 0.00144
80.00 0.00126
80.50 0.00109
81.00 0.00095
81.50 0.00085
82.00 0.00076
82.50 0.00065
83.00 0.00058
83.50 0.00052
84.00 0.00046
84.50 0.00040
85.00 0.00035
85.50 0.00032
86.00 0.00028
86.50 0.00025
87.00 0.00022
87.50 0.00020
88.00 0.00018
88.50 0.00016
89.00 0.00015
89.50 0.00014
90.00 0.00013
90.00 0.00013
90.50 0.00014
91.00 0.00015
91.50 0.00016
92.00 0.00018
92.50 0.00020
93.00 0.00022
93.50 0.00025
94.00 0.00028
94.50 0.00032
95.00 0.00035
95.50 0.00040
96.00 0.00046
96.50 0.00052
97.00 0.00058
97.50 0.00065
98.00 0.00076
98.50 0.00085
99.00 0.00095
99.50 0.00109
100.00 0.00126
100.50 0.00144
101.00 0.00161
101.50 0.00179
102.00 0.00209
102.50 0.00243
103.00 0.00276
103.50 0.00310
104.00 0.00359
104.50 0.00422
105.00 0.00485
105.50 0.00549
106.00 0.00613
106.50 0.00715
107.00 0.00835
107.50 0.00968
108.00 0.01112
108.50 0.01257
109.00 0.01445
109.50 0.01688
110.00 0.01931
110.50 0.02200
111.00 0.02520
111.50 0.02933
112.00 0.03464
112.50 0.03993
113.00 0.04523
113.50 0.05072
114.00 0.05951
114.50 0.06920
115.00 0.07906
115.50 0.08891
116.00 0.10094
116.50 0.11878
117.00 0.13661
117.50 0.15395
118.00 0.17102
118.50 0.19026
119.00 0.21607
119.50 0.24208
120.00 0.26797
120.50 0.29212
121.00 0.31510
121.50 0.33796
122.00 0.36309
122.50 0.39199
123.00 0.40865
123.50 0.42680
124.00 0.44604
124.50 0.46512
125.00 0.48403
125.50 0.50277
126.00 0.51672
126.50 0.52628
127.00 0.53934
127.50 0.55315
128.00 0.56687
128.50 0.58051
129.00 0.59178
129.50 0.59895
130.00 0.60958
130.50 0.62149
131.00 0.63413
131.50 0.64645
132.00 0.65821
132.50 0.67069
133.00 0.68518
133.50 0.69892
134.00 0.71378
134.50 0.72970
135.00 0.74564
135.50 0.76280
136.00 0.78004
136.50 0.79765
137.00 0.81578
137.50 0.83400
138.00 0.85308
138.50 0.87231
139.00 0.89158
139.50 0.91116
140.00 0.93135
140.50 0.95167
141.00 0.97203
141.50 0.99243
142.00 1.01225
142.50 1.03206
143.00 1.05274
143.50 1.07371
144.00 1.09319
144.50 1.10991
145.00 1.12719
145.50 1.14525
146.00 1.16334
146.50 1.18146
147.00 1.19794
147.50 1.21197
148.00 1.22606
148.50 1.24197
149.00 1.25794
149.50 1.27396
150.00 1.29002
150.50 1.30518
151.00 1.31998
151.50 1.33593
152.00 1.35149
152.50 1.36674
153.00 1.38202
153.50 1.39736
154.00 1.41238
154.50 1.42716
155.00 1.44199
155.50 1.45391
156.00 1.46467
156.50 1.47545
157.00 1.48377
157.50 1.48976
158.00 1.49581
158.50 1.50081
159.00 1.50562
159.50 1.51047
160.00 1.51515
160.50 1.51671
161.00 1.51815
161.50 1.51922
162.00 1.52153
162.50 1.52446
163.00 1.52747
163.50 1.53058
164.00 1.53266
164.50 1.53480
165.00 1.53685
165.50 1.53854
166.00 1.54033
166.50 1.54221
167.00 1.54359
167.50 1.54495
168.00 1.54590
168.50 1.54537
169.00 1.54492
169.50 1.54457
170.00 1.54370
170.50 1.54193
171.00 1.53948
171.50 1.53701
172.00 1.53597
172.50 1.53504
173.00 1.53423
173.50 1.53345
174.00 1.53248
174.50 1.53163
175.00 1.53102
175.50 1.53075
176.00 1.53061
176.50 1.53069
177.00 1.53090
177.50 1.53124
178.00 1.53170
178.50 1.53209
179.00 1.53251
179.50 1.53304
180.00 1.53369
180.00 1.53369
180.50 1.53304
181.00 1.53251
181.50 1.53209
182.00 1.53170
182.50 1.53124
183.00 1.53090
183.50 1.53069
184.00 1.53061
184.50 1.53075
185.00 1.53102
185.50 1.53163
186.00 1.53248
186.50 1.53345
187.00 1.53423
187.50 1.53504
188.00 1.53597
188.50 1.53701
189.00 1.53948
189.50 1.54193
190.00 1.54370
190.50 1.54457
191.00 1.54492
191.50 1.54537
192.00 1.54590
192.50 1.54495
193.00 1.54359
193.50 1.54221
194.00 1.54033
194.50 1.53854
195.00 1.53685
195.50 1.53480
196.00 1.53266
196.50 1.53058
197.00 1.52747
197.50 1.52446
198.00 1.52153
198.50 1.51922
199.00 1.51815
199.50 1.51671
200.00 1.51515
200.50 1.51047
201.00 1.50562
201.50 1.50081
202.00 1.49581
202.50 1.48976
203.00 1.48377
203.50 1.47545
204.00 1.46467
204.50 1.45391
205.00 1.44199
205.50 1.42716
206.00 1.41238
206.50 1.39736
207.00 1.38202
207.50 1.36674
208.00 1.35149
208.50 1.33593
209.00 1.31998
209.50 1.30518
210.00 1.29002
210.50 1.27396
211.00 1.25794
211.50 1.24197
212.00 1.22606
212.50 1.21197
213.00 1.19794
213.50 1.18146
214.00 1.16334
214.50 1.14525
215.00 1.12719
215.50 1.10991
216.00 1.09319
216.50 1.07371
217.00 1.05274
217.50 1.03206
218.00 1.01225
218.50 0.99243
219.00 0.97203
219.50 0.95167
220.00 0.93135
220.50 0.91116
221.00 0.89158
221.50 0.87231
222.00 0.85308
222.50 0.83400
223.00 0.81578
223.50 0.79765
224.00 0.78004
224.50 0.76280
225.00 0.74564
225.50 0.72970
226.00 0.71378
226.50 0.69892
227.00 0.68518
227.50 0.67069
228.00 0.65821
228.50 0.64645
229.00 0.63413
229.50 0.62149
230.00 0.60958
230.50 0.59895
231.00 0.59178
231.50 0.58051
232.00 0.56687
232.50 0.55315
233.00 0.53934
233.50 0.52628
234.00 0.51672
234.50 0.50277
235.00 0.48403
235.50 0.46512
236.00 0.44604
236.50 0.42680
237.00 0.40865
237.50 0.39199
238.00 0.36309
238.50 0.33796
239.00 0.31510
239.50 0.29212
240.00 0.26797
240.50 0.24208
241.00 0.21607
241.50 0.19026
242.00 0.17102
242.50 0.15395
243.00 0.13661
243.50 0.11878
244.00 0.10094
244.50 0.08891
245.00 0.07906
245.50 0.06920
246.00 0.05951
246.50 0.05072
247.00 0.04523
247.50 0.03993
248.00 0.03464
248.50 0.02933
249.00 0.02520
249.50 0.02200
250.00 0.01931
250.50 0.01688
251.00 0.01445
251.50 0.01257
252.00 0.01112
252.50 0.00968
253.00 0.00835
253.50 0.00715
254.00 0.00613
254.50 0.00549
255.00 0.00485
255.50 0.00422
256.00 0.00359
256.50 0.00310
257.00 0.00276
257.50 0.00243
258.00 0.00209
258.50 0.00179
259.00 0.00161
259.50 0.00144
260.00 0.00126
260.50 0.00109
261.00 0.00095
261.50 0.00085
262.00 0.00076
262.50 0.00065
263.00 0.00058
263.50 0.00052
264.00 0.00046
264.50 0.00040
265.00 0.00035
265.50 0.00032
266.00 0.00028
266.50 0.00025
267.00 0.00022
267.50 0.00020
268.00 0.00018
268.50 0.00016
269.00 0.00015
269.50 0.00014
270.00 0.00013
270.00 0.00013
270.50 0.00014
271.00 0.00015
271.50 0.00016
272.00 0.00018
272.50 0.00020
273.00 0.00022
273.50 0.00025
274.00 0.00028
274.50 0.00032
275.00 0.00035
275.50 0.00040
276.00 0.00046
276.50 0.00052
277.00 0.00058
277.50 0.00065
278.00 0.00076
278.50 0.00085
279.00 0.00095
279.50 0.00109
280.00 0.00126
280.50 0.00144
281.00 0.00161
281.50 0.00179
282.00 0.00209
282.50 0.00243
283.00 0.00276
283.50 0.00310
284.00 0.00359
284.50 0.00422
285.00 0.00485
285.50 0.00549
286.00 0.00613
286.50 0.00715
287.00 0.00835
287.50 0.00968
288.00 0.01112
288.50 0.01257
289.00 0.01445
289.50 0.01688
290.00 0.01931
290.50 0.02200
291.00 0.02520
291.50 0.02933
292.00 0.03464
292.50 0.03993
293.00 0.04523
293.50 0.05072
294.00 0.05951
294.50 0.06920
295.00 0.07906
295.50 0.08891
296.00 0.10094
296.50 0.11878
297.00 0.13661
297.50 0.15395
298.00 0.17102
298.50 0.19026
299.00 0.21607
299.50 0.24208
300.00 0.26797
300.50 0.29212
301.00 0.31510
301.50 0.33796
302.00 0.36309
302.50 0.39199
303.00 0.40865
303.50 0.42680
304.00 0.44604
304.50 0.46512
305.00 0.48403
305.50 0.50277
306.00 0.51672
306.50 0.52628
307.00 0.53934
307.50 0.55315
308.00 0.56687
308.50 0.58051
309.00 0.59178
309.50 0.59895
310.00 0.60958
310.50 0.62149
311.00 0.63413
311.50 0.64645
312.00 0.65821
312.50 0.67069
313.00 0.68518
313.50 0.69892
314.00 0.71378
314.50 0.72970
315.00 0.74564
315.50 0.76280
316.00 0.78004
316.50 0.79765
317.00 0.81578
317.50 0.83400
318.00 0.85308
318.50 0.87231
319.00 0.89158
319.50 0.91116
320.00 0.93135
320.50 0.95167
321.00 0.97203
321.50 0.99243
322.00 1.01225
322.50 1.03206
323.00 1.05274
323.50 1.07371
324.00 1.09319
324.50 1.10991
325.00 1.12719
325.50 1.14525
326.00 1.16334
326.50 1.18146
327.00 1.19794
327.50 1.21197
328.00 1.22606
328.50 1.24197
329.00 1.25794
329.50 1.27396
330.00 1.29002
330.50 1.30518
331.00 1.31998
331.50 1.33593
332.00 1.35149
332.50 1.36674
333.00 1.38202
333.50 1.39736
334.00 1.41238
334.50 1.42716
335.00 1.44199
335.50 1.45391
336.00 1.46467
336.50 1.47545
337.00 1.48377
337.50 1.48976
338.00 1.49581
338.50 1.50081
339.00 1.50562
339.50 1.51047
340.00 1.51515
340.50 1.51671
341.00 1.51815
341.50 1.51922
342.00 1.52153
342.50 1.52446
343.00 1.52747
343.50 1.53058
344.00 1.53266
344.50 1.53480
345.00 1.53685
345.50 1.53854
346.00 1.54033
346.50 1.54221
347.00 1.54359
347.50 1.54495
348.00 1.54590
348.50 1.54537
349.00 1.54492
349.50 1.54457
350.00 1.54370
350.50 1.54193
351.00 1.53948
351.50 1.53701
352.00 1.53597
352.50 1.53504
353.00 1.53423
353.50 1.53345
354.00 1.53248
354.50 1.53163
355.00 1.53102
355.50 1.53075
356.00 1.53061
356.50 1.53069
357.00 1.53090
357.50 1.53124
358.00 1.53170
358.50 1.53209
359.00 1.53251
359.50 1.53304
360.00 1.53369
