phi[deg] B[T]
0.00 1.39949
0.50 1.39905
1.00 1.39875
1.50 1.39894
2.00 1.39923
2.50 1.39904
3.00 1.39877
3.50 1.39864
4.00 1.39884
4.50 1.39914
5.00 1.39863
5.50 1.39822
6.00 1.39792
6.50 1.39777
7.00 1.39806
7.50 1.39845
8.00 1.39899
8.50 1.39938
9.00 1.39937
9.50 1.39874
10.00 1.39818
10.50 1.39771
11.00 1.39732
11.50 1.39701
12.00 1.39679
12.50 1.39664
13.00 1.39695
13.50 1.39780
14.00 1.39768
14.50 1.39710
15.00 1.39653
15.50 1.39419
16.00 1.39190
16.50 1.38967
17.00 1.38749
17.50 1.38537
18.00 1.38252
18.50 1.37919
19.00 1.37592
19.50 1.37171
20.00 1.36538
20.50 1.35910
21.00 1.35286
21.50 1.34667
22.00 1.34051
22.50 1.33483
23.00 1.32933
23.50 1.32311
24.00 1.31630
24.50 1.30772
25.00 1.29916
25.50 1.29063
26.00 1.28211
26.50 1.27362
27.00 1.26515
27.50 1.25785
28.00 1.25240
28.50 1.24753
29.00 1.24302
29.50 1.23262
30.00 1.22049
30.50 1.20830
31.00 1.19605
31.50 1.18374
32.00 1.17138
32.50 1.16205
33.00 1.15817
33.50 1.14742
34.00 1.13299
34.50 1.11366
35.00 1.09413
35.50 1.07439
36.00 1.05446
36.50 1.03432
37.00 1.01509
37.50 0.99718
38.00 0.97015
38.50 0.94024
39.00 0.91010
39.50 0.88092
40.00 0.85156
40.50 0.82129
41.00 0.78464
41.50 0.74779
42.00 0.71207
42.50 0.67888
43.00 0.64283
43.50 0.60145
44.00 0.56194
44.50 0.52754
45.00 0.49302
45.50 0.45977
46.00 0.42640
46.50 0.39139
47.00 0.35609
47.50 0.32518
48.00 0.29758
48.50 0.26990
49.00 0.24373
49.50 0.21923
50.00 0.19807
50.50 0.18266
51.00 0.16707
51.50 0.15094
52.00 0.13480
52.50 0.11867
53.00 0.10804
53.50 0.09816
54.00 0.08884
54.50 0.08126
55.00 0.07368
55.50 0.06611
56.00 0.05855
56.50 0.05174
57.00 0.04706
57.50 0.04238
58.00 0.03769
58.50 0.03408
59.00 0.03110
59.50 0.02814
60.00 0.02517
60.50 0.02246
61.00 0.02020
61.50 0.01793
62.00 0.01614
62.50 0.01496
63.00 0.01378
63.50 0.01260
64.00 0.01143
64.50 0.01025
65.00 0.00908
65.50 0.00788
66.00 0.00707
66.50 0.00657
67.00 0.00606
67.50 0.00555
68.00 0.00505
68.50 0.00454
69.00 0.00403
69.50 0.00352
70.00 0.00302
70.50 0.00279
71.00 0.00255
71.50 0.00233
72.00 0.00211
72.50 0.00189
73.00 0.00171
73.50 0.00158
74.00 0.00146
74.50 0.00133
75.00 0.00121
75.50 0.00109
76.00 0.00096
76.50 0.00087
77.00 0.00081
77.50 0.00075
78.00 0.00070
78.50 0.00064
79.00 0.00058
79.50 0.00052
80.00 0.00046
80.50 0.00042
81.00 0.00039
81.50 0.00036
82.00 0.00033
82.50 0.00030
83.00 0.00027
83.50 0.00025
84.00 0.00023
84.50 0.00022
85.00 0.00020
85.50 0.00018
86.00 0.00016
86.50 0.00015
87.00 0.00014
87.50 0.00013
88.00 0.00012
88.50 0.00011
89.00 0.00011
89.50 0.00010
90.00 0.00010
90.00 0.00010
90.50 0.00010
91.00 0.00011
91.50 0.00011
92.00 0.00012
92.50 0.00013
93.00 0.00014
93.50 0.00015
94.00 0.00016
94.50 0.00018
95.00 0.00020
95.50 0.00022
96.00 0.00023
96.50 0.00025
97.00 0.00027
97.50 0.00030
98.00 0.00033
98.50 0.00036
99.00 0.00039
99.50 0.00042
100.00 0.00046
100.50 0.00052
101.00 0.00058
101.50 0.00064
102.00 0.00070
102.50 0.00075
103.00 0.00081
103.50 0.00087
104.00 0.00096
104.50 0.00109
105.00 0.00121
105.50 0.00133
106.00 0.00146
106.50 0.00158
107.00 0.00171
107.50 0.00189
108.00 0.00211
108.50 0.00233
109.00 0.00255
109.50 0.00279
110.00 0.00302
110.50 0.00352
111.00 0.00403
111.50 0.00454
112.00 0.00505
112.50 0.00555
113.00 0.00606
113.50 0.00657
114.00 0.00707
114.50 0.00788
115.00 0.00908
115.50 0.01025
116.00 0.01143
116.50 0.01260
117.00 0.01378
117.50 0.01496
118.00 0.01614
118.50 0.01793
119.00 0.02020
119.50 0.02246
120.00 0.02517
120.50 0.02814
121.00 0.03110
121.50 0.03408
122.00 0.03769
122.50 0.04238
123.00 0.04706
123.50 0.05174
124.00 0.05855
124.50 0.06611
125.00 0.07368
125.50 0.08126
126.00 0.08884
126.50 0.09816
127.00 0.10804
127.50 0.11867
128.00 0.13480
128.50 0.15094
129.00 0.16707
129.50 0.18266
130.00 0.19807
130.50 0.21923
131.00 0.24373
131.50 0.26990
132.00 0.29758
132.50 0.32518
133.00 0.35609
133.50 0.39139
134.00 0.42640
134.50 0.45977
135.00 0.49302
135.50 0.52754
136.00 0.56194
136.50 0.60145
137.00 0.64283
137.50 0.67888
138.00 0.71207
138.50 0.74779
139.00 0.78464
139.50 0.82129
140.00 0.85156
140.50 0.88092
141.00 0.91010
141.50 0.94024
142.00 0.97015
142.50 0.99718
143.00 1.01509
143.50 1.03432
144.00 1.05446
144.50 1.07439
145.00 1.09413
145.50 1.11366
146.00 1.13299
146.50 1.14742
147.00 1.15817
147.50 1.16205
148.00 1.17138
148.50 1.18374
149.00 1.19605
149.50 1.20830
150.00 1.22049
150.50 1.23262
151.00 1.24302
151.50 1.24753
152.00 1.25240
152.50 1.25785
153.00 1.26515
153.50 1.27362
154.00 1.28211
154.50 1.29063
155.00 1.29916
155.50 1.30772
156.00 1.31630
156.50 1.32311
157.00 1.32933
157.50 1.33483
158.00 1.34051
158.50 1.34667
159.00 1.35286
159.50 1.35910
160.00 1.36538
160.50 1.37171
161.00 1.37592
161.50 1.37919
162.00 1.38252
162.50 1.38537
163.00 1.38749
163.50 1.38967
164.00 1.39190
164.50 1.39419
165.00 1.39653
165.50 1.39710
166.00 1.39768
166.50 1.39780
167.00 1.39695
167.50 1.39664
168.00 1.39679
168.50 1.39701
169.00 1.39732
169.50 1.39771
170.00 1.39818
170.50 1.39874
171.00 1.39937
171.50 1.39938
172.00 1.39899
172.50 1.39845
173.00 1.39806
173.50 1.39777
174.00 1.39792
174.50 1.39822
175.00 1.39863
175.50 1.39914
176.00 1.39884
176.50 1.39864
177.00 1.39877
177.50 1.39904
178.00 1.39923
178.50 1.39894
179.00 1.39875
179.50 1.39905
180.00 1.39949
180.00 1.39949
180.50 1.39905
181.00 1.39875
181.50 1.39894
182.00 1.39923
182.50 1.39904
183.00 1.39877
183.50 1.39864
184.00 1.39884
184.50 1.39914
185.00 1.39863
185.50 1.39822
186.00 1.39792
186.50 1.39777
187.00 1.39806
187.50 1.39845
188.00 1.39899
188.50 1.39938
189.00 1.39937
189.50 1.39874
190.00 1.39818
190.50 1.39771
191.00 1.39732
191.50 1.39701
192.00 1.39679
192.50 1.39664
193.00 1.39695
193.50 1.39780
194.00 1.39768
194.50 1.39710
195.00 1.39653
195.50 1.39419
196.00 1.39190
196.50 1.38967
197.00 1.38749
197.50 1.38537
198.00 1.38252
198.50 1.37919
199.00 1.37592
199.50 1.37171
200.00 1.36538
200.50 1.35910
201.00 1.35286
201.50 1.34667
202.00 1.34051
202.50 1.33483
203.00 1.32933
203.50 1.32311
204.00 1.31630
204.50 1.30772
205.00 1.29916
205.50 1.29063
206.00 1.28211
206.50 1.27362
207.00 1.26515
207.50 1.25785
208.00 1.25240
208.50 1.24753
209.00 1.24302
209.50 1.23262
210.00 1.22049
210.50 1.20830
211.00 1.19605
211.50 1.18374
212.00 1.17138
212.50 1.16205
213.00 1.15817
213.50 1.14742
214.00 1.13299
214.50 1.11366
215.00 1.09413
215.50 1.07439
216.00 1.05446
216.50 1.03432
217.00 1.01509
217.50 0.99718
218.00 0.97015
218.50 0.94024
219.00 0.91010
219.50 0.88092
220.00 0.85156
220.50 0.82129
221.00 0.78464
221.50 0.74779
222.00 0.71207
222.50 0.67888
223.00 0.64283
223.50 0.60145
224.00 0.56194
224.50 0.52754
225.00 0.49302
225.50 0.45977
226.00 0.42640
226.50 0.39139
227.00 0.35609
227.50 0.32518
228.00 0.29758
228.50 0.26990
229.00 0.24373
229.50 0.21923
230.00 0.19807
230.50 0.18266
231.00 0.16707
231.50 0.15094
232.00 0.13480
232.50 0.11867
233.00 0.10804
233.50 0.09816
234.00 0.08884
234.50 0.08126
235.00 0.07368
235.50 0.06611
236.00 0.05855
236.50 0.05174
237.00 0.04706
237.50 0.04238
238.00 0.03769
238.50 0.03408
239.00 0.03110
239.50 0.02814
240.00 0.02517
240.50 0.02246
241.00 0.02020
241.50 0.01793
242.00 0.01614
242.50 0.01496
243.00 0.01378
243.50 0.01260
244.00 0.01143
244.50 0.01025
245.00 0.00908
245.50 0.00788
246.00 0.00707
246.50 0.00657
247.00 0.00606
247.50 0.00555
248.00 0.00505
248.50 0.00454
249.00 0.00403
249.50 0.00352
250.00 0.00302
250.50 0.00279
251.00 0.00255
251.50 0.00233
252.00 0.00211
252.50 0.00189
253.00 0.00171
253.50 0.00158
254.00 0.00146
254.50 0.00133
255.00 0.00121
255.50 0.00109
256.00 0.00096
256.50 0.00087
257.00 0.00081
257.50 0.00075
258.00 0.00070
258.50 0.00064
259.00 0.00058
259.50 0.00052
260.00 0.00046
260.50 0.00042
261.00 0.00039
261.50 0.00036
262.00 0.00033
262.50 0.00030
263.00 0.00027
263.50 0.00025
264.00 0.00023
264.50 0.00022
265.00 0.00020
265.50 0.00018
266.00 0.00016
266.50 0.00015
267.00 0.00014
267.50 0.00013
268.00 0.00012
268.50 0.00011
269.00 0.00011
269.50 0.00010
270.00 0.00010
270.00 0.00010
270.50 0.00010
271.00 0.00011
271.50 0.00011
272.00 0.00012
272.50 0.00013
273.00 0.00014
273.50 0.00015
274.00 0.00016
274.50 0.00018
275.00 0.00020
275.50 0.00022
276.00 0.00023
276.50 0.00025
277.00 0.00027
277.50 0.00030
278.00 0.00033
278.50 0.00036
279.00 0.00039
279.50 0.00042
280.00 0.00046
280.50 0.00052
281.00 0.00058
281.50 0.00064
282.00 0.00070
282.50 0.00075
283.00 0.00081
283.50 0.00087
284.00 0.00096
284.50 0.00109
285.00 0.00121
285.50 0.00133
286.00 0.00146
286.50 0.00158
287.00 0.00171
287.50 0.00189
288.00 0.00211
288.50 0.00233
289.00 0.00255
289.50 0.00279
290.00 0.00302
290.50 0.00352
291.00 0.00403
291.50 0.00454
292.00 0.00505
292.50 0.00555
293.00 0.00606
293.50 0.00657
294.00 0.00707
294.50 0.00788
295.00 0.00908
295.50 0.01025
296.00 0.01143
296.50 0.01260
297.00 0.01378
297.50 0.01496
298.00 0.01614
298.50 0.01793
299.00 0.02020
299.50 0.02246
300.00 0.02517
300.50 0.02814
301.00 0.03110
301.50 0.03408
302.00 0.03769
302.50 0.04238
303.00 0.04706
303.50 0.05174
304.00 0.05855
304.50 0.06611
305.00 0.07368
305.50 0.08126
306.00 0.08884
306.50 0.09816
307.00 0.10804
307.50 0.11867
308.00 0.13480
308.50 0.15094
309.00 0.16707
309.50 0.18266
310.00 0.19807
310.50 0.21923
311.00 0.24373
311.50 0.26990
312.00 0.29758
312.50 0.32518
313.00 0.35609
313.50 0.39139
314.00 0.42640
314.50 0.45977
315.00 0.49302
315.50 0.52754
316.00 0.56194
316.50 0.60145
317.00 0.64283
317.50 0.67888
318.00 0.71207
318.50 0.74779
319.00 0.78464
319.50 0.82129
320.00 0.85156
320.50 0.88092
321.00 0.91010
321.50 0.94024
322.00 0.97015
322.50 0.99718
323.00 1.01509
323.50 1.03432
324.00 1.05446
324.50 1.07439
325.00 1.09413
325.50 1.11366
326.00 1.13299
326.50 1.14742
327.00 1.15817
327.50 1.16205
328.00 1.17138
328.50 1.18374
329.00 1.19605
329.50 1.20830
330.00 1.22049
330.50 1.23262
331.00 1.24302
331.50 1.24753
332.00 1.25240
332.50 1.25785
333.00 1.26515
333.50 1.27362
334.00 1.28211
334.50 1.29063
335.00 1.29916
335.50 1.30772
336.00 1.31630
336.50 1.32311
337.00 1.32933
337.50 1.33483
338.00 1.34051
338.50 1.34667
339.00 1.35286
339.50 1.35910
340.00 1.36538
340.50 1.37171
341.00 1.37592
341.50 1.37919
342.00 1.38252
342.50 1.38537
343.00 1.38749
343.50 1.38967
344.00 1.39190
344.50 1.39419
345.00 1.39653
345.50 1.39710
346.00 1.39768
346.50 1.39780
347.00 1.39695
347.50 1.39664
348.00 1.39679
348.50 1.39701
349.00 1.39732
349.50 1.39771
350.00 1.39818
350.50 1.39874
351.00 1.39937
351.50 1.39938
352.00 1.39899
352.50 1.39845
353.00 1.39806
353.50 1.39777
354.00 1.39792
354.50 1.39822
355.00 1.39863
355.50 1.39914
356.00 1.39884
356.50 1.39864
357.00 1.39877
357.50 1.39904
358.00 1.39923
358.50 1.39894
359.00 1.39875
359.50 1.39905
360.00 1.39949
