phi[deg] B[T]
0.00 1.08591
0.50 1.08555
1.00 1.08523
1.50 1.08496
2.00 1.08478
2.50 1.08482
3.00 1.08466
3.50 1.08437
4.00 1.08412
4.50 1.08389
5.00 1.08371
5.50 1.08356
6.00 1.08277
6.50 1.08199
7.00 1.08204
7.50 1.08215
8.00 1.08230
8.50 1.08248
9.00 1.08260
9.50 1.08228
10.00 1.08199
10.50 1.08191
11.00 1.08244
11.50 1.08300
12.00 1.08361
12.50 1.08463
13.00 1.08568
13.50 1.08665
14.00 1.08718
14.50 1.08773
15.00 1.08830
15.50 1.08939
16.00 1.09086
16.50 1.09234
17.00 1.09384
17.50 1.09472
18.00 1.09535
18.50 1.09599
19.00 1.09664
19.50 1.09744
20.00 1.09828
20.50 1.09913
21.00 1.09920
21.50 1.09858
22.00 1.09795
22.50 1.09667
23.00 1.09530
23.50 1.09393
24.00 1.09256
24.50 1.09078
25.00 1.08891
25.50 1.08348
26.00 1.07775
26.50 1.07350
27.00 1.06932
27.50 1.06511
28.00 1.06088
28.50 1.05444
29.00 1.04554
29.50 1.03658
30.00 1.02938
30.50 1.02259
31.00 1.01573
31.50 1.00597
32.00 0.99258
32.50 0.97910
33.00 0.96555
33.50 0.95200
34.00 0.93867
34.50 0.92187
35.00 0.90362
35.50 0.88532
36.00 0.86695
36.50 0.84853
37.00 0.83004
37.50 0.81151
38.00 0.79101
38.50 0.77033
39.00 0.74953
39.50 0.72862
40.00 0.70760
40.50 0.68646
41.00 0.66522
41.50 0.64347
42.00 0.61723
42.50 0.59088
43.00 0.56444
43.50 0.53789
44.00 0.51124
44.50 0.48450
45.00 0.45981
45.50 0.43325
46.00 0.41194
46.50 0.39058
47.00 0.36918
47.50 0.34773
48.00 0.32624
48.50 0.30710
49.00 0.29035
49.50 0.27355
50.00 0.25671
50.50 0.23983
51.00 0.22292
51.50 0.20597
52.00 0.18899
52.50 0.17765
53.00 0.16755
53.50 0.15743
54.00 0.14730
54.50 0.13717
55.00 0.12702
55.50 0.11687
56.00 0.10779
56.50 0.10148
57.00 0.09517
57.50 0.08886
58.00 0.08256
58.50 0.07760
59.00 0.07275
59.50 0.06789
60.00 0.06303
60.50 0.05816
61.00 0.05401
61.50 0.05035
62.00 0.04670
62.50 0.04306
63.00 0.04000
63.50 0.03786
64.00 0.03572
64.50 0.03358
65.00 0.03144
65.50 0.02930
66.00 0.02716
66.50 0.02501
67.00 0.02331
67.50 0.02164
68.00 0.01998
68.50 0.01845
69.00 0.01745
69.50 0.01644
70.00 0.01544
70.50 0.01443
71.00 0.01342
71.50 0.01242
72.00 0.01141
72.50 0.01061
73.00 0.00993
73.50 0.00925
74.00 0.00858
74.50 0.00805
75.00 0.00759
75.50 0.00713
76.00 0.00666
76.50 0.00620
77.00 0.00574
77.50 0.00528
78.00 0.00495
78.50 0.00467
79.00 0.00440
79.50 0.00412
80.00 0.00384
80.50 0.00360
81.00 0.00338
81.50 0.00316
82.00 0.00294
82.50 0.00277
83.00 0.00266
83.50 0.00255
84.00 0.00244
84.50 0.00233
85.00 0.00222
85.50 0.00211
86.00 0.00200
86.50 0.00190
87.00 0.00186
87.50 0.00182
88.00 0.00177
88.50 0.00173
89.00 0.00169
89.50 0.00165
90.00 0.00161
90.00 0.00161
90.50 0.00165
91.00 0.00169
91.50 0.00173
92.00 0.00177
92.50 0.00182
93.00 0.00186
93.50 0.00190
94.00 0.00200
94.50 0.00211
95.00 0.00222
95.50 0.00233
96.00 0.00244
96.50 0.00255
97.00 0.00266
97.50 0.00277
98.00 0.00294
98.50 0.00316
99.00 0.00338
99.50 0.00360
100.00 0.00384
100.50 0.00412
101.00 0.00440
101.50 0.00467
102.00 0.00495
102.50 0.00528
103.00 0.00574
103.50 0.00620
104.00 0.00666
104.50 0.00713
105.00 0.00759
105.50 0.00805
106.00 0.00858
106.50 0.00925
107.00 0.00993
107.50 0.01061
108.00 0.01141
108.50 0.01242
109.00 0.01342
109.50 0.01443
110.00 0.01544
110.50 0.01644
111.00 0.01745
111.50 0.01845
112.00 0.01998
112.50 0.02164
113.00 0.02331
113.50 0.02501
114.00 0.02716
114.50 0.02930
115.00 0.03144
115.50 0.03358
116.00 0.03572
116.50 0.03786
117.00 0.04000
117.50 0.04306
118.00 0.04670
118.50 0.05035
119.00 0.05401
119.50 0.05816
120.00 0.06303
120.50 0.06789
121.00 0.07275
121.50 0.07760
122.00 0.08256
122.50 0.08886
123.00 0.09517
123.50 0.10148
124.00 0.10779
124.50 0.11687
125.00 0.12702
125.50 0.13717
126.00 0.14730
126.50 0.15743
127.00 0.16755
127.50 0.17765
128.00 0.18899
128.50 0.20597
129.00 0.22292
129.50 0.23983
130.00 0.25671
130.50 0.27355
131.00 0.29035
131.50 0.30710
132.00 0.32624
132.50 0.34773
133.00 0.36918
133.50 0.39058
134.00 0.41194
134.50 0.43325
135.00 0.45981
135.50 0.48450
136.00 0.51124
136.50 0.53789
137.00 0.56444
137.50 0.59088
138.00 0.61723
138.50 0.64347
139.00 0.66522
139.50 0.68646
140.00 0.70760
140.50 0.72862
141.00 0.74953
141.50 0.77033
142.00 0.79101
142.50 0.81151
143.00 0.83004
143.50 0.84853
144.00 0.86695
144.50 0.88532
145.00 0.90362
145.50 0.92187
146.00 0.93867
146.50 0.95200
147.00 0.96555
147.50 0.97910
148.00 0.99258
148.50 1.00597
149.00 1.01573
149.50 1.02259
150.00 1.02938
150.50 1.03658
151.00 1.04554
151.50 1.05444
152.00 1.06088
152.50 1.06511
153.00 1.06932
153.50 1.07350
154.00 1.07775
154.50 1.08348
155.00 1.08891
155.50 1.09078
156.00 1.09256
156.50 1.09393
157.00 1.09530
157.50 1.09667
158.00 1.09795
158.50 1.09858
159.00 1.09920
159.50 1.09913
160.00 1.09828
160.50 1.09744
161.00 1.09664
161.50 1.09599
162.00 1.09535
162.50 1.09472
163.00 1.09384
163.50 1.09234
164.00 1.09086
164.50 1.08939
165.00 1.08830
165.50 1.08773
166.00 1.08718
166.50 1.08665
167.00 1.08568
167.50 1.08463
168.00 1.08361
168.50 1.08300
169.00 1.08244
169.50 1.08191
170.00 1.08199
170.50 1.08228
171.00 1.08260
171.50 1.08248
172.00 1.08230
172.50 1.08215
173.00 1.08204
173.50 1.08199
174.00 1.08277
174.50 1.08356
175.00 1.08371
175.50 1.08389
176.00 1.08412
176.50 1.08437
177.00 1.08466
177.50 1.08482
178.00 1.08478
178.50 1.08496
179.00 1.08523
179.50 1.08555
180.00 1.08591
180.00 1.08591
180.50 1.08555
181.00 1.08523
181.50 1.08496
182.00 1.08478
182.50 1.08482
183.00 1.08466
183.50 1.08437
184.00 1.08412
184.50 1.08389
185.00 1.08371
185.50 1.08356
186.00 1.08277
186.50 1.08199
187.00 1.08204
187.50 1.08215
188.00 1.08230
188.50 1.08248
189.00 1.08260
189.50 1.08228
190.00 1.08199
190.50 1.08191
191.00 1.08244
191.50 1.08300
192.00 1.08361
192.50 1.08463
193.00 1.08568
193.50 1.08665
194.00 1.08718
194.50 1.08773
195.00 1.08830
195.50 1.08939
196.00 1.09086
196.50 1.09234
197.00 1.09384
197.50 1.09472
198.00 1.09535
198.50 1.09599
199.00 1.09664
199.50 1.09744
200.00 1.09828
200.50 1.09913
201.00 1.09920
201.50 1.09858
202.00 1.09795
202.50 1.09667
203.00 1.09530
203.50 1.09393
204.00 1.09256
204.50 1.09078
205.00 1.08891
205.50 1.08348
206.00 1.07775
206.50 1.07350
207.00 1.06932
207.50 1.06511
208.00 1.06088
208.50 1.05444
209.00 1.04554
209.50 1.03658
210.00 1.02938
210.50 1.02259
211.00 1.01573
211.50 1.00597
212.00 0.99258
212.50 0.97910
213.00 0.96555
213.50 0.95200
214.00 0.93867
214.50 0.92187
215.00 0.90362
215.50 0.88532
216.00 0.86695
216.50 0.84853
217.00 0.83004
217.50 0.81151
218.00 0.79101
218.50 0.77033
219.00 0.74953
219.50 0.72862
220.00 0.70760
220.50 0.68646
221.00 0.66522
221.50 0.64347
222.00 0.61723
222.50 0.59088
223.00 0.56444
223.50 0.53789
224.00 0.51124
224.50 0.48450
225.00 0.45981
225.50 0.43325
226.00 0.41194
226.50 0.39058
227.00 0.36918
227.50 0.34773
228.00 0.32624
228.50 0.30710
229.00 0.29035
229.50 0.27355
230.00 0.25671
230.50 0.23983
231.00 0.22292
231.50 0.20597
232.00 0.18899
232.50 0.17765
233.00 0.16755
233.50 0.15743
234.00 0.14730
234.50 0.13717
235.00 0.12702
235.50 0.11687
236.00 0.10779
236.50 0.10148
237.00 0.09517
237.50 0.08886
238.00 0.08256
238.50 0.07760
239.00 0.07275
239.50 0.06789
240.00 0.06303
240.50 0.05816
241.00 0.05401
241.50 0.05035
242.00 0.04670
242.50 0.04306
243.00 0.04000
243.50 0.03786
244.00 0.03572
244.50 0.03358
245.00 0.03144
245.50 0.02930
246.00 0.02716
246.50 0.02501
247.00 0.02331
247.50 0.02164
248.00 0.01998
248.50 0.01845
249.00 0.01745
249.50 0.01644
250.00 0.01544
250.50 0.01443
251.00 0.01342
251.50 0.01242
252.00 0.01141
252.50 0.01061
253.00 0.00993
253.50 0.00925
254.00 0.00858
254.50 0.00805
255.00 0.00759
255.50 0.00713
256.00 0.00666
256.50 0.00620
257.00 0.00574
257.50 0.00528
258.00 0.00495
258.50 0.00467
259.00 0.00440
259.50 0.00412
260.00 0.00384
260.50 0.00360
261.00 0.00338
261.50 0.00316
262.00 0.00294
262.50 0.00277
263.00 0.00266
263.50 0.00255
264.00 0.00244
264.50 0.00233
265.00 0.00222
265.50 0.00211
266.00 0.00200
266.50 0.00190
267.00 0.00186
267.50 0.00182
268.00 0.00177
268.50 0.00173
269.00 0.00169
269.50 0.00165
270.00 0.00161
270.00 0.00161
270.50 0.00165
271.00 0.00169
271.50 0.00173
272.00 0.00177
272.50 0.00182
273.00 0.00186
273.50 0.00190
274.00 0.00200
274.50 0.00211
275.00 0.00222
275.50 0.00233
276.00 0.00244
276.50 0.00255
277.00 0.00266
277.50 0.00277
278.00 0.00294
278.50 0.00316
279.00 0.00338
279.50 0.00360
280.00 0.00384
280.50 0.00412
281.00 0.00440
281.50 0.00467
282.00 0.00495
282.50 0.00528
283.00 0.00574
283.50 0.00620
284.00 0.00666
284.50 0.00713
285.00 0.00759
285.50 0.00805
286.00 0.00858
286.50 0.00925
287.00 0.00993
287.50 0.01061
288.00 0.01141
288.50 0.01242
289.00 0.01342
289.50 0.01443
290.00 0.01544
290.50 0.01644
291.00 0.01745
291.50 0.01845
292.00 0.01998
292.50 0.02164
293.00 0.02331
293.50 0.02501
294.00 0.02716
294.50 0.02930
295.00 0.03144
295.50 0.03358
296.00 0.03572
296.50 0.03786
297.00 0.04000
297.50 0.04306
298.00 0.04670
298.50 0.05035
299.00 0.05401
299.50 0.05816
300.00 0.06303
300.50 0.06789
301.00 0.07275
301.50 0.07760
302.00 0.08256
302.50 0.08886
303.00 0.09517
303.50 0.10148
304.00 0.10779
304.50 0.11687
305.00 0.12702
305.50 0.13717
306.00 0.14730
306.50 0.15743
307.00 0.16755
307.50 0.17765
308.00 0.18899
308.50 0.20597
309.00 0.22292
309.50 0.23983
310.00 0.25671
310.50 0.27355
311.00 0.29035
311.50 0.30710
312.00 0.32624
312.50 0.34773
313.00 0.36918
313.50 0.39058
314.00 0.41194
314.50 0.43325
315.00 0.45981
315.50 0.48450
316.00 0.51124
316.50 0.53789
317.00 0.56444
317.50 0.59088
318.00 0.61723
318.50 0.64347
319.00 0.66522
319.50 0.68646
320.00 0.70760
320.50 0.72862
321.00 0.74953
321.50 0.77033
322.00 0.79101
322.50 0.81151
323.00 0.83004
323.50 0.84853
324.00 0.86695
324.50 0.88532
325.00 0.90362
325.50 0.92187
326.00 0.93867
326.50 0.95200
327.00 0.96555
327.50 0.97910
328.00 0.99258
328.50 1.00597
329.00 1.01573
329.50 1.02259
330.00 1.02938
330.50 1.03658
331.00 1.04554
331.50 1.05444
332.00 1.06088
332.50 1.06511
333.00 1.06932
333.50 1.07350
334.00 1.07775
334.50 1.08348
335.00 1.08891
335.50 1.09078
336.00 1.09256
336.50 1.09393
337.00 1.09530
337.50 1.09667
338.00 1.09795
338.50 1.09858
339.00 1.09920
339.50 1.09913
340.00 1.09828
340.50 1.09744
341.00 1.09664
341.50 1.09599
342.00 1.09535
342.50 1.09472
343.00 1.09384
343.50 1.09234
344.00 1.09086
344.50 1.08939
345.00 1.08830
345.50 1.08773
346.00 1.08718
346.50 1.08665
347.00 1.08568
347.50 1.08463
348.00 1.08361
348.50 1.08300
349.00 1.08244
349.50 1.08191
350.00 1.08199
350.50 1.08228
351.00 1.08260
351.50 1.08248
352.00 1.08230
352.50 1.08215
353.00 1.08204
353.50 1.08199
354.00 1.08277
354.50 1.08356
355.00 1.08371
355.50 1.08389
356.00 1.08412
356.50 1.08437
357.00 1.08466
357.50 1.08482
358.00 1.08478
358.50 1.08496
359.00 1.08523
359.50 1.08555
360.00 1.08591
