phi[deg] B[T]
0.00 1.37878
0.50 1.37842
1.00 1.37816
1.50 1.37804
2.00 1.37834
2.50 1.37840
3.00 1.37843
3.50 1.37861
4.00 1.37890
4.50 1.37929
5.00 1.37953
5.50 1.37981
6.00 1.37999
6.50 1.38026
7.00 1.38064
7.50 1.38117
8.00 1.38204
8.50 1.38320
9.00 1.38415
9.50 1.38446
10.00 1.38487
10.50 1.38536
11.00 1.38595
11.50 1.38663
12.00 1.38740
12.50 1.38827
13.00 1.39009
13.50 1.39226
14.00 1.39405
14.50 1.39332
15.00 1.39266
15.50 1.39205
16.00 1.39150
16.50 1.39100
17.00 1.39056
17.50 1.39018
18.00 1.39090
18.50 1.39134
19.00 1.39033
19.50 1.38646
20.00 1.38248
20.50 1.37853
21.00 1.37459
21.50 1.37066
22.00 1.36676
22.50 1.36287
23.00 1.36060
23.50 1.35907
24.00 1.35484
24.50 1.35047
25.00 1.34149
25.50 1.33246
26.00 1.32339
26.50 1.31427
27.00 1.30510
27.50 1.29640
28.00 1.28792
28.50 1.27940
29.00 1.26897
29.50 1.25263
30.00 1.23619
30.50 1.21965
31.00 1.20402
31.50 1.18848
32.00 1.17285
32.50 1.15712
33.00 1.13352
33.50 1.10939
34.00 1.08677
34.50 1.06399
35.00 1.04106
35.50 1.01586
36.00 0.98435
36.50 0.95640
37.00 0.92840
37.50 0.90019
38.00 0.87076
38.50 0.83370
39.00 0.79644
39.50 0.75897
40.00 0.72161
40.50 0.68445
41.00 0.64717
41.50 0.60966
42.00 0.57180
42.50 0.53523
43.00 0.49852
43.50 0.46196
44.00 0.42769
44.50 0.39331
45.00 0.35796
45.50 0.32738
46.00 0.29885
46.50 0.27100
47.00 0.24854
47.50 0.22579
48.00 0.20248
48.50 0.18204
49.00 0.16531
49.50 0.14893
50.00 0.13426
50.50 0.12117
51.00 0.10913
51.50 0.09938
52.00 0.08982
52.50 0.08039
53.00 0.07117
53.50 0.06503
54.00 0.05890
54.50 0.05425
55.00 0.04966
55.50 0.04508
56.00 0.04050
56.50 0.03593
57.00 0.03157
57.50 0.02811
58.00 0.02465
58.50 0.02278
59.00 0.02099
59.50 0.01917
60.00 0.01731
60.50 0.01545
61.00 0.01360
61.50 0.01190
62.00 0.01101
62.50 0.01012
63.00 0.00922
63.50 0.00833
64.00 0.00743
64.50 0.00655
65.00 0.00586
65.50 0.00542
66.00 0.00499
66.50 0.00455
67.00 0.00411
67.50 0.00367
68.00 0.00323
68.50 0.00290
69.00 0.00267
69.50 0.00247
70.00 0.00227
70.50 0.00207
71.00 0.00187
71.50 0.00166
72.00 0.00146
72.50 0.00129
73.00 0.00119
73.50 0.00111
74.00 0.00103
74.50 0.00094
75.00 0.00086
75.50 0.00078
76.00 0.00070
76.50 0.00062
77.00 0.00058
77.50 0.00054
78.00 0.00050
78.50 0.00046
79.00 0.00042
79.50 0.00038
80.00 0.00034
80.50 0.00032
81.00 0.00030
81.50 0.00028
82.00 0.00026
82.50 0.00024
83.00 0.00021
83.50 0.00020
84.00 0.00018
84.50 0.00017
85.00 0.00015
85.50 0.00014
86.00 0.00013
86.50 0.00011
87.00 0.00010
87.50 0.00009
88.00 0.00008
88.50 0.00008
89.00 0.00007
89.50 0.00007
90.00 0.00006
90.00 0.00006
90.50 0.00007
91.00 0.00007
91.50 0.00008
92.00 0.00008
92.50 0.00009
93.00 0.00010
93.50 0.00011
94.00 0.00013
94.50 0.00014
95.00 0.00015
95.50 0.00017
96.00 0.00018
96.50 0.00020
97.00 0.00021
97.50 0.00024
98.00 0.00026
98.50 0.00028
99.00 0.00030
99.50 0.00032
100.00 0.00034
100.50 0.00038
101.00 0.00042
101.50 0.00046
102.00 0.00050
102.50 0.00054
103.00 0.00058
103.50 0.00062
104.00 0.00070
104.50 0.00078
105.00 0.00086
105.50 0.00094
106.00 0.00103
106.50 0.00111
107.00 0.00119
107.50 0.00129
108.00 0.00146
108.50 0.00166
109.00 0.00187
109.50 0.00207
110.00 0.00227
110.50 0.00247
111.00 0.00267
111.50 0.00290
112.00 0.00323
112.50 0.00367
113.00 0.00411
113.50 0.00455
114.00 0.00499
114.50 0.00542
115.00 0.00586
115.50 0.00655
116.00 0.00743
116.50 0.00833
117.00 0.00922
117.50 0.01012
118.00 0.01101
118.50 0.01190
119.00 0.01360
119.50 0.01545
120.00 0.01731
120.50 0.01917
121.00 0.02099
121.50 0.02278
122.00 0.02465
122.50 0.02811
123.00 0.03157
123.50 0.03593
124.00 0.04050
124.50 0.04508
125.00 0.04966
125.50 0.05425
126.00 0.05890
126.50 0.06503
127.00 0.07117
127.50 0.08039
128.00 0.08982
128.50 0.09938
129.00 0.10913
129.50 0.12117
130.00 0.13426
130.50 0.14893
131.00 0.16531
131.50 0.18204
132.00 0.20248
132.50 0.22579
133.00 0.24854
133.50 0.27100
134.00 0.29885
134.50 0.32738
135.00 0.35796
135.50 0.39331
136.00 0.42769
136.50 0.46196
137.00 0.49852
137.50 0.53523
138.00 0.57180
138.50 0.60966
139.00 0.64717
139.50 0.68445
140.00 0.72161
140.50 0.75897
141.00 0.79644
141.50 0.83370
142.00 0.87076
142.50 0.90019
143.00 0.92840
143.50 0.95640
144.00 0.98435
144.50 1.01586
145.00 1.04106
145.50 1.06399
146.00 1.08677
146.50 1.10939
147.00 1.13352
147.50 1.15712
148.00 1.17285
148.50 1.18848
149.00 1.20402
149.50 1.21965
150.00 1.23619
150.50 1.25263
151.00 1.26897
151.50 1.27940
152.00 1.28792
152.50 1.29640
153.00 1.30510
153.50 1.31427
154.00 1.32339
154.50 1.33246
155.00 1.34149
155.50 1.35047
156.00 1.35484
156.50 1.35907
157.00 1.36060
157.50 1.36287
158.00 1.36676
158.50 1.37066
159.00 1.37459
159.50 1.37853
160.00 1.38248
160.50 1.38646
161.00 1.39033
161.50 1.39134
162.00 1.39090
162.50 1.39018
163.00 1.39056
163.50 1.39100
164.00 1.39150
164.50 1.39205
165.00 1.39266
165.50 1.39332
166.00 1.39405
166.50 1.39226
167.00 1.39009
167.50 1.38827
168.00 1.38740
168.50 1.38663
169.00 1.38595
169.50 1.38536
170.00 1.38487
170.50 1.38446
171.00 1.38415
171.50 1.38320
172.00 1.38204
172.50 1.38117
173.00 1.38064
173.50 1.38026
174.00 1.37999
174.50 1.37981
175.00 1.37953
175.50 1.37929
176.00 1.37890
176.50 1.37861
177.00 1.37843
177.50 1.37840
178.00 1.37834
178.50 1.37804
179.00 1.37816
179.50 1.37842
180.00 1.37878
180.00 1.37878
180.50 1.37842
181.00 1.37816
181.50 1.37804
182.00 1.37834
182.50 1.37840
183.00 1.37843
183.50 1.37861
184.00 1.37890
184.50 1.37929
185.00 1.37953
185.50 1.37981
186.00 1.37999
186.50 1.38026
187.00 1.38064
187.50 1.38117
188.00 1.38204
188.50 1.38320
189.00 1.38415
189.50 1.38446
190.00 1.38487
190.50 1.38536
191.00 1.38595
191.50 1.38663
192.00 1.38740
192.50 1.38827
193.00 1.39009
193.50 1.39226
194.00 1.39405
194.50 1.39332
195.00 1.39266
195.50 1.39205
196.00 1.39150
196.50 1.39100
197.00 1.39056
197.50 1.39018
198.00 1.39090
198.50 1.39134
199.00 1.39033
199.50 1.38646
200.00 1.38248
200.50 1.37853
201.00 1.37459
201.50 1.37066
202.00 1.36676
202.50 1.36287
203.00 1.36060
203.50 1.35907
204.00 1.35484
204.50 1.35047
205.00 1.34149
205.50 1.33246
206.00 1.32339
206.50 1.31427
207.00 1.30510
207.50 1.29640
208.00 1.28792
208.50 1.27940
209.00 1.26897
209.50 1.25263
210.00 1.23619
210.50 1.21965
211.00 1.20402
211.50 1.18848
212.00 1.17285
212.50 1.15712
213.00 1.13352
213.50 1.10939
214.00 1.08677
214.50 1.06399
215.00 1.04106
215.50 1.01586
216.00 0.98435
216.50 0.95640
217.00 0.92840
217.50 0.90019
218.00 0.87076
218.50 0.83370
219.00 0.79644
219.50 0.75897
220.00 0.72161
220.50 0.68445
221.00 0.64717
221.50 0.60966
222.00 0.57180
222.50 0.53523
223.00 0.49852
223.50 0.46196
224.00 0.42769
224.50 0.39331
225.00 0.35796
225.50 0.32738
226.00 0.29885
226.50 0.27100
227.00 0.24854
227.50 0.22579
228.00 0.20248
228.50 0.18204
229.00 0.16531
229.50 0.14893
230.00 0.13426
230.50 0.12117
231.00 0.10913
231.50 0.09938
232.00 0.08982
232.50 0.08039
233.00 0.07117
233.50 0.06503
234.00 0.05890
234.50 0.05425
235.00 0.04966
235.50 0.04508
236.00 0.04050
236.50 0.03593
237.00 0.03157
237.50 0.02811
238.00 0.02465
238.50 0.02278
239.00 0.02099
239.50 0.01917
240.00 0.01731
240.50 0.01545
241.00 0.01360
241.50 0.01190
242.00 0.01101
242.50 0.01012
243.00 0.00922
243.50 0.00833
244.00 0.00743
244.50 0.00655
245.00 0.00586
245.50 0.00542
246.00 0.00499
246.50 0.00455
247.00 0.00411
247.50 0.00367
248.00 0.00323
248.50 0.00290
249.00 0.00267
249.50 0.00247
250.00 0.00227
250.50 0.00207
251.00 0.00187
251.50 0.00166
252.00 0.00146
252.50 0.00129
253.00 0.00119
253.50 0.00111
254.00 0.00103
254.50 0.00094
255.00 0.00086
255.50 0.00078
256.00 0.00070
256.50 0.00062
257.00 0.00058
257.50 0.00054
258.00 0.00050
258.50 0.00046
259.00 0.00042
259.50 0.00038
260.00 0.00034
260.50 0.00032
261.00 0.00030
261.50 0.00028
262.00 0.00026
262.50 0.00024
263.00 0.00021
263.50 0.00020
264.00 0.00018
264.50 0.00017
265.00 0.00015
265.50 0.00014
266.00 0.00013
266.50 0.00011
267.00 0.00010
267.50 0.00009
268.00 0.00008
268.50 0.00008
269.00 0.00007
269.50 0.00007
270.00 0.00006
270.00 0.00006
270.50 0.00007
271.00 0.00007
271.50 0.00008
272.00 0.00008
272.50 0.00009
273.00 0.00010
273.50 0.00011
274.00 0.00013
274.50 0.00014
275.00 0.00015
275.50 0.00017
276.00 0.00018
276.50 0.00020
277.00 0.00021
277.50 0.00024
278.00 0.00026
278.50 0.00028
279.00 0.00030
279.50 0.00032
280.00 0.00034
280.50 0.00038
281.00 0.00042
281.50 0.00046
282.00 0.00050
282.50 0.00054
283.00 0.00058
283.50 0.00062
284.00 0.00070
284.50 0.00078
285.00 0.00086
285.50 0.00094
286.00 0.00103
286.50 0.00111
287.00 0.00119
287.50 0.00129
288.00 0.00146
288.50 0.00166
289.00 0.00187
289.50 0.00207
290.00 0.00227
290.50 0.00247
291.00 0.00267
291.50 0.00290
292.00 0.00323
292.50 0.00367
293.00 0.00411
293.50 0.00455
294.00 0.00499
294.50 0.00542
295.00 0.00586
295.50 0.00655
296.00 0.00743
296.50 0.00833
297.00 0.00922
297.50 0.01012
298.00 0.01101
298.50 0.01190
299.00 0.01360
299.50 0.01545
300.00 0.01731
300.50 0.01917
301.00 0.02099
301.50 0.02278
302.00 0.02465
302.50 0.02811
303.00 0.03157
303.50 0.03593
304.00 0.04050
304.50 0.04508
305.00 0.04966
305.50 0.05425
306.00 0.05890
306.50 0.06503
307.00 0.07117
307.50 0.08039
308.00 0.08982
308.50 0.09938
309.00 0.10913
309.50 0.12117
310.00 0.13426
310.50 0.14893
311.00 0.16531
311.50 0.18204
312.00 0.20248
312.50 0.22579
313.00 0.24854
313.50 0.27100
314.00 0.29885
314.50 0.32738
315.00 0.35796
315.50 0.39331
316.00 0.42769
316.50 0.46196
317.00 0.49852
317.50 0.53523
318.00 0.57180
318.50 0.60966
319.00 0.64717
319.50 0.68445
320.00 0.72161
320.50 0.75897
321.00 0.79644
321.50 0.83370
322.00 0.87076
322.50 0.90019
323.00 0.92840
323.50 0.95640
324.00 0.98435
324.50 1.01586
325.00 1.04106
325.50 1.06399
326.00 1.08677
326.50 1.10939
327.00 1.13352
327.50 1.15712
328.00 1.17285
328.50 1.18848
329.00 1.20402
329.50 1.21965
330.00 1.23619
330.50 1.25263
331.00 1.26897
331.50 1.27940
332.00 1.28792
332.50 1.29640
333.00 1.30510
333.50 1.31427
334.00 1.32339
334.50 1.33246
335.00 1.34149
335.50 1.35047
336.00 1.35484
336.50 1.35907
337.00 1.36060
337.50 1.36287
338.00 1.36676
338.50 1.37066
339.00 1.37459
339.50 1.37853
340.00 1.38248
340.50 1.38646
341.00 1.39033
341.50 1.39134
342.00 1.39090
342.50 1.39018
343.00 1.39056
343.50 1.39100
344.00 1.39150
344.50 1.39205
345.00 1.39266
345.50 1.39332
346.00 1.39405
346.50 1.39226
347.00 1.39009
347.50 1.38827
348.00 1.38740
348.50 1.38663
349.00 1.38595
349.50 1.38536
350.00 1.38487
350.50 1.38446
351.00 1.38415
351.50 1.38320
352.00 1.38204
352.50 1.38117
353.00 1.38064
353.50 1.38026
354.00 1.37999
354.50 1.37981
355.00 1.37953
355.50 1.37929
356.00 1.37890
356.50 1.37861
357.00 1.37843
357.50 1.37840
358.00 1.37834
358.50 1.37804
359.00 1.37816
359.50 1.37842
360.00 1.37878
