phi[deg] B[T]
0.00 1.19771
0.50 1.19654
1.00 1.19545
1.50 1.19439
2.00 1.19267
2.50 1.19105
3.00 1.18952
3.50 1.18870
4.00 1.18804
4.50 1.18714
5.00 1.18635
5.50 1.18626
6.00 1.18680
6.50 1.18772
7.00 1.18957
7.50 1.19152
8.00 1.19322
8.50 1.19495
9.00 1.19691
9.50 1.20069
10.00 1.20391
10.50 1.20663
11.00 1.20760
11.50 1.20858
12.00 1.20900
12.50 1.20660
13.00 1.20427
13.50 1.20243
14.00 1.20075
14.50 1.19806
15.00 1.19442
15.50 1.19111
16.00 1.18908
16.50 1.18715
17.00 1.18571
17.50 1.18454
18.00 1.18334
18.50 1.18205
19.00 1.18085
19.50 1.18174
20.00 1.18304
20.50 1.18214
21.00 1.18003
21.50 1.17797
22.00 1.17623
22.50 1.17828
23.00 1.17231
23.50 1.16665
24.00 1.16107
24.50 1.15551
25.00 1.14499
25.50 1.13291
26.00 1.12283
26.50 1.11306
27.00 1.10287
27.50 1.09145
28.00 1.08030
28.50 1.07058
29.00 1.06093
29.50 1.05137
30.00 1.04272
30.50 1.03556
31.00 1.02765
31.50 1.01834
32.00 1.00907
32.50 1.00049
33.00 0.99348
33.50 0.98538
34.00 0.97302
34.50 0.96067
35.00 0.94776
35.50 0.93429
36.00 0.91900
36.50 0.90185
37.00 0.88470
37.50 0.86652
38.00 0.84652
38.50 0.82761
39.00 0.81060
39.50 0.79385
40.00 0.77716
40.50 0.76119
41.00 0.74655
41.50 0.73228
42.00 0.71824
42.50 0.70534
43.00 0.69246
43.50 0.68065
44.00 0.66857
44.50 0.65635
45.00 0.64501
45.50 0.63344
46.00 0.62123
46.50 0.60890
47.00 0.59679
47.50 0.58372
48.00 0.57068
48.50 0.55707
49.00 0.54274
49.50 0.52869
50.00 0.51523
50.50 0.50178
51.00 0.48682
51.50 0.47183
52.00 0.45755
52.50 0.44515
53.00 0.43234
53.50 0.41680
54.00 0.40119
54.50 0.38654
55.00 0.37383
55.50 0.35884
56.00 0.34042
56.50 0.32189
57.00 0.30438
57.50 0.28710
58.00 0.26814
58.50 0.24744
59.00 0.22621
59.50 0.20126
60.00 0.17620
60.50 0.15689
61.00 0.13915
61.50 0.12103
62.00 0.10017
62.50 0.08315
63.00 0.06977
63.50 0.05998
64.00 0.05034
64.50 0.04129
65.00 0.03513
65.50 0.02895
66.00 0.02390
66.50 0.01967
67.00 0.01697
67.50 0.01428
68.00 0.01157
68.50 0.00974
69.00 0.00837
69.50 0.00700
70.00 0.00561
70.50 0.00490
71.00 0.00419
71.50 0.00345
72.00 0.00289
72.50 0.00252
73.00 0.00216
73.50 0.00179
74.00 0.00162
74.50 0.00145
75.00 0.00127
75.50 0.00111
76.00 0.00103
76.50 0.00095
77.00 0.00089
77.50 0.00083
78.00 0.00078
78.50 0.00073
79.00 0.00069
79.50 0.00066
80.00 0.00063
80.50 0.00060
81.00 0.00056
81.50 0.00053
82.00 0.00050
82.50 0.00047
83.00 0.00044
83.50 0.00041
84.00 0.00039
84.50 0.00036
85.00 0.00033
85.50 0.00030
86.00 0.00027
86.50 0.00025
87.00 0.00022
87.50 0.00020
88.00 0.00017
88.50 0.00015
89.00 0.00014
89.50 0.00013
90.00 0.00012
90.00 0.00012
90.50 0.00013
91.00 0.00014
91.50 0.00015
92.00 0.00017
92.50 0.00020
93.00 0.00022
93.50 0.00025
94.00 0.00027
94.50 0.00030
95.00 0.00033
95.50 0.00036
96.00 0.00039
96.50 0.00041
97.00 0.00044
97.50 0.00047
98.00 0.00050
98.50 0.00053
99.00 0.00056
99.50 0.00060
100.00 0.00063
100.50 0.00066
101.00 0.00069
101.50 0.00073
102.00 0.00078
102.50 0.00083
103.00 0.00089
103.50 0.00095
104.00 0.00103
104.50 0.00111
105.00 0.00127
105.50 0.00145
106.00 0.00162
106.50 0.00179
107.00 0.00216
107.50 0.00252
108.00 0.00289
108.50 0.00345
109.00 0.00419
109.50 0.00490
110.00 0.00561
110.50 0.00700
111.00 0.00837
111.50 0.00974
112.00 0.01157
112.50 0.01428
113.00 0.01697
113.50 0.01967
114.00 0.02390
114.50 0.02895
115.00 0.03513
115.50 0.04129
116.00 0.05034
116.50 0.05998
117.00 0.06977
117.50 0.08315
118.00 0.10017
118.50 0.12103
119.00 0.13915
119.50 0.15689
120.00 0.17620
120.50 0.20126
121.00 0.22621
121.50 0.24744
122.00 0.26814
122.50 0.28710
123.00 0.30438
123.50 0.32189
124.00 0.34042
124.50 0.35884
125.00 0.37383
125.50 0.38654
126.00 0.40119
126.50 0.41680
127.00 0.43234
127.50 0.44515
128.00 0.45755
128.50 0.47183
129.00 0.48682
129.50 0.50178
130.00 0.51523
130.50 0.52869
131.00 0.54274
131.50 0.55707
132.00 0.57068
132.50 0.58372
133.00 0.59679
133.50 0.60890
134.00 0.62123
134.50 0.63344
135.00 0.64501
135.50 0.65635
136.00 0.66857
136.50 0.68065
137.00 0.69246
137.50 0.70534
138.00 0.71824
138.50 0.73228
139.00 0.74655
139.50 0.76119
140.00 0.77716
140.50 0.79385
141.00 0.81060
141.50 0.82761
142.00 0.84652
142.50 0.86652
143.00 0.88470
143.50 0.90185
144.00 0.91900
144.50 0.93429
145.00 0.94776
145.50 0.96067
146.00 0.97302
146.50 0.98538
147.00 0.99348
147.50 1.00049
148.00 1.00907
148.50 1.01834
149.00 1.02765
149.50 1.03556
150.00 1.04272
150.50 1.05137
151.00 1.06093
151.50 1.07058
152.00 1.08030
152.50 1.09145
153.00 1.10287
153.50 1.11306
154.00 1.12283
154.50 1.13291
155.00 1.14499
155.50 1.15551
156.00 1.16107
156.50 1.16665
157.00 1.17231
157.50 1.17828
158.00 1.17623
158.50 1.17797
159.00 1.18003
159.50 1.18214
160.00 1.18304
160.50 1.18174
161.00 1.18085
161.50 1.18205
162.00 1.18334
162.50 1.18454
163.00 1.18571
163.50 1.18715
164.00 1.18908
164.50 1.19111
165.00 1.19442
165.50 1.19806
166.00 1.20075
166.50 1.20243
167.00 1.20427
167.50 1.20660
168.00 1.20900
168.50 1.20858
169.00 1.20760
169.50 1.20663
170.00 1.20391
170.50 1.20069
171.00 1.19691
171.50 1.19495
172.00 1.19322
172.50 1.19152
173.00 1.18957
173.50 1.18772
174.00 1.18680
174.50 1.18626
175.00 1.18635
175.50 1.18714
176.00 1.18804
176.50 1.18870
177.00 1.18952
177.50 1.19105
178.00 1.19267
178.50 1.19439
179.00 1.19545
179.50 1.19654
180.00 1.19771
180.00 1.19771
180.50 1.19654
181.00 1.19545
181.50 1.19439
182.00 1.19267
182.50 1.19105
183.00 1.18952
183.50 1.18870
184.00 1.18804
184.50 1.18714
185.00 1.18635
185.50 1.18626
186.00 1.18680
186.50 1.18772
187.00 1.18957
187.50 1.19152
188.00 1.19322
188.50 1.19495
189.00 1.19691
189.50 1.20069
190.00 1.20391
190.50 1.20663
191.00 1.20760
191.50 1.20858
192.00 1.20900
192.50 1.20660
193.00 1.20427
193.50 1.20243
194.00 1.20075
194.50 1.19806
195.00 1.19442
195.50 1.19111
196.00 1.18908
196.50 1.18715
197.00 1.18571
197.50 1.18454
198.00 1.18334
198.50 1.18205
199.00 1.18085
199.50 1.18174
200.00 1.18304
200.50 1.18214
201.00 1.18003
201.50 1.17797
202.00 1.17623
202.50 1.17828
203.00 1.17231
203.50 1.16665
204.00 1.16107
204.50 1.15551
205.00 1.14499
205.50 1.13291
206.00 1.12283
206.50 1.11306
207.00 1.10287
207.50 1.09145
208.00 1.08030
208.50 1.07058
209.00 1.06093
209.50 1.05137
210.00 1.04272
210.50 1.03556
211.00 1.02765
211.50 1.01834
212.00 1.00907
212.50 1.00049
213.00 0.99348
213.50 0.98538
214.00 0.97302
214.50 0.96067
215.00 0.94776
215.50 0.93429
216.00 0.91900
216.50 0.90185
217.00 0.88470
217.50 0.86652
218.00 0.84652
218.50 0.82761
219.00 0.81060
219.50 0.79385
220.00 0.77716
220.50 0.76119
221.00 0.74655
221.50 0.73228
222.00 0.71824
222.50 0.70534
223.00 0.69246
223.50 0.68065
224.00 0.66857
224.50 0.65635
225.00 0.64501
225.50 0.63344
226.00 0.62123
226.50 0.60890
227.00 0.59679
227.50 0.58372
228.00 0.57068
228.50 0.55707
229.00 0.54274
229.50 0.52869
230.00 0.51523
230.50 0.50178
231.00 0.48682
231.50 0.47183
232.00 0.45755
232.50 0.44515
233.00 0.43234
233.50 0.41680
234.00 0.40119
234.50 0.38654
235.00 0.37383
235.50 0.35884
236.00 0.34042
236.50 0.32189
237.00 0.30438
237.50 0.28710
238.00 0.26814
238.50 0.24744
239.00 0.22621
239.50 0.20126
240.00 0.17620
240.50 0.15689
241.00 0.13915
241.50 0.12103
242.00 0.10017
242.50 0.08315
243.00 0.06977
243.50 0.05998
244.00 0.05034
244.50 0.04129
245.00 0.03513
245.50 0.02895
246.00 0.02390
246.50 0.01967
247.00 0.01697
247.50 0.01428
248.00 0.01157
248.50 0.00974
249.00 0.00837
249.50 0.00700
250.00 0.00561
250.50 0.00490
251.00 0.00419
251.50 0.00345
252.00 0.00289
252.50 0.00252
253.00 0.00216
253.50 0.00179
254.00 0.00162
254.50 0.00145
255.00 0.00127
255.50 0.00111
256.00 0.00103
256.50 0.00095
257.00 0.00089
257.50 0.00083
258.00 0.00078
258.50 0.00073
259.00 0.00069
259.50 0.00066
260.00 0.00063
260.50 0.00060
261.00 0.00056
261.50 0.00053
262.00 0.00050
262.50 0.00047
263.00 0.00044
263.50 0.00041
264.00 0.00039
264.50 0.00036
265.00 0.00033
265.50 0.00030
266.00 0.00027
266.50 0.00025
267.00 0.00022
267.50 0.00020
268.00 0.00017
268.50 0.00015
269.00 0.00014
269.50 0.00013
270.00 0.00012
270.00 0.00012
270.50 0.00013
271.00 0.00014
271.50 0.00015
272.00 0.00017
272.50 0.00020
273.00 0.00022
273.50 0.00025
274.00 0.00027
274.50 0.00030
275.00 0.00033
275.50 0.00036
276.00 0.00039
276.50 0.00041
277.00 0.00044
277.50 0.00047
278.00 0.00050
278.50 0.00053
279.00 0.00056
279.50 0.00060
280.00 0.00063
280.50 0.00066
281.00 0.00069
281.50 0.00073
282.00 0.00078
282.50 0.00083
283.00 0.00089
283.50 0.00095
284.00 0.00103
284.50 0.00111
285.00 0.00127
285.50 0.00145
286.00 0.00162
286.50 0.00179
287.00 0.00216
287.50 0.00252
288.00 0.00289
288.50 0.00345
289.00 0.00419
289.50 0.00490
290.00 0.00561
290.50 0.00700
291.00 0.00837
291.50 0.00974
292.00 0.01157
292.50 0.01428
293.00 0.01697
293.50 0.01967
294.00 0.02390
294.50 0.02895
295.00 0.03513
295.50 0.04129
296.00 0.05034
296.50 0.05998
297.00 0.06977
297.50 0.08315
298.00 0.10017
298.50 0.12103
299.00 0.13915
299.50 0.15689
300.00 0.17620
300.50 0.20126
301.00 0.22621
301.50 0.24744
302.00 0.26814
302.50 0.28710
303.00 0.30438
303.50 0.32189
304.00 0.34042
304.50 0.35884
305.00 0.37383
305.50 0.38654
306.00 0.40119
306.50 0.41680
307.00 0.43234
307.50 0.44515
308.00 0.45755
308.50 0.47183
309.00 0.48682
309.50 0.50178
310.00 0.51523
310.50 0.52869
311.00 0.54274
311.50 0.55707
312.00 0.57068
312.50 0.58372
313.00 0.59679
313.50 0.60890
314.00 0.62123
314.50 0.63344
315.00 0.64501
315.50 0.65635
316.00 0.66857
316.50 0.68065
317.00 0.69246
317.50 0.70534
318.00 0.71824
318.50 0.73228
319.00 0.74655
319.50 0.76119
320.00 0.77716
320.50 0.79385
321.00 0.81060
321.50 0.82761
322.00 0.84652
322.50 0.86652
323.00 0.88470
323.50 0.90185
324.00 0.91900
324.50 0.93429
325.00 0.94776
325.50 0.96067
326.00 0.97302
326.50 0.98538
327.00 0.99348
327.50 1.00049
328.00 1.00907
328.50 1.01834
329.00 1.02765
329.50 1.03556
330.00 1.04272
330.50 1.05137
331.00 1.06093
331.50 1.07058
332.00 1.08030
332.50 1.09145
333.00 1.10287
333.50 1.11306
334.00 1.12283
334.50 1.13291
335.00 1.14499
335.50 1.15551
336.00 1.16107
336.50 1.16665
337.00 1.17231
337.50 1.17828
338.00 1.17623
338.50 1.17797
339.00 1.18003
339.50 1.18214
340.00 1.18304
340.50 1.18174
341.00 1.18085
341.50 1.18205
342.00 1.18334
342.50 1.18454
343.00 1.18571
343.50 1.18715
344.00 1.18908
344.50 1.19111
345.00 1.19442
345.50 1.19806
346.00 1.20075
346.50 1.20243
347.00 1.20427
347.50 1.20660
348.00 1.20900
348.50 1.20858
349.00 1.20760
349.50 1.20663
350.00 1.20391
350.50 1.20069
351.00 1.19691
351.50 1.19495
352.00 1.19322
352.50 1.19152
353.00 1.18957
353.50 1.18772
354.00 1.18680
354.50 1.18626
355.00 1.18635
355.50 1.18714
356.00 1.18804
356.50 1.18870
357.00 1.18952
357.50 1.19105
358.00 1.19267
358.50 1.19439
359.00 1.19545
359.50 1.19654
360.00 1.19771
