phi[deg] B[T]
0.00 1.73747
0.50 1.73698
1.00 1.73662
1.50 1.73639
2.00 1.73630
2.50 1.73623
3.00 1.73630
3.50 1.73651
4.00 1.73685
4.50 1.73720
5.00 1.73767
5.50 1.73843
6.00 1.73973
6.50 1.74117
7.00 1.74221
7.50 1.74296
8.00 1.74383
8.50 1.74484
9.00 1.74636
9.50 1.74924
10.00 1.75115
10.50 1.75224
11.00 1.75204
11.50 1.75195
12.00 1.75195
12.50 1.75204
13.00 1.75080
13.50 1.74902
14.00 1.74696
14.50 1.74403
15.00 1.74120
15.50 1.73848
16.00 1.73585
16.50 1.73339
17.00 1.73112
17.50 1.72910
18.00 1.72535
18.50 1.72111
19.00 1.71694
19.50 1.71285
20.00 1.70925
20.50 1.70675
21.00 1.70432
21.50 1.69633
22.00 1.68710
22.50 1.67790
23.00 1.66875
23.50 1.66037
24.00 1.65409
24.50 1.64050
25.00 1.62466
25.50 1.61016
26.00 1.59571
26.50 1.58129
27.00 1.56691
27.50 1.55111
28.00 1.53416
28.50 1.51716
29.00 1.49969
29.50 1.48228
30.00 1.46492
30.50 1.44763
31.00 1.43068
31.50 1.41516
32.00 1.39986
32.50 1.38129
33.00 1.36211
33.50 1.34294
34.00 1.32380
34.50 1.30467
35.00 1.28573
35.50 1.26754
36.00 1.24606
36.50 1.22284
37.00 1.20034
37.50 1.17828
38.00 1.15625
38.50 1.13324
39.00 1.11026
39.50 1.08727
40.00 1.06457
40.50 1.04233
41.00 1.02021
41.50 0.99851
42.00 0.97708
42.50 0.95574
43.00 0.93548
43.50 0.91526
44.00 0.89538
44.50 0.87592
45.00 0.85677
45.50 0.83874
46.00 0.82042
46.50 0.80294
47.00 0.78618
47.50 0.76949
48.00 0.75373
48.50 0.73805
49.00 0.72389
49.50 0.70972
50.00 0.69199
50.50 0.67777
51.00 0.66482
51.50 0.65022
52.00 0.63352
52.50 0.61677
53.00 0.59996
53.50 0.58101
54.00 0.56338
54.50 0.54612
55.00 0.52869
55.50 0.51110
56.00 0.49181
56.50 0.47204
57.00 0.44821
57.50 0.42420
58.00 0.40002
58.50 0.37556
59.00 0.34626
59.50 0.31681
60.00 0.29281
60.50 0.26968
61.00 0.24643
61.50 0.22307
62.00 0.19705
62.50 0.16926
63.00 0.15076
63.50 0.13401
64.00 0.12035
64.50 0.10669
65.00 0.09304
65.50 0.08043
66.00 0.07175
66.50 0.06306
67.00 0.05435
67.50 0.04772
68.00 0.04127
68.50 0.03622
69.00 0.03268
69.50 0.02913
70.00 0.02558
70.50 0.02203
71.00 0.01864
71.50 0.01656
72.00 0.01492
72.50 0.01329
73.00 0.01167
73.50 0.01004
74.00 0.00845
74.50 0.00759
75.00 0.00673
75.50 0.00588
76.00 0.00513
76.50 0.00440
77.00 0.00391
77.50 0.00352
78.00 0.00314
78.50 0.00277
79.00 0.00240
79.50 0.00204
80.00 0.00184
80.50 0.00163
81.00 0.00143
81.50 0.00128
82.00 0.00114
82.50 0.00100
83.00 0.00088
83.50 0.00079
84.00 0.00069
84.50 0.00063
85.00 0.00057
85.50 0.00051
86.00 0.00046
86.50 0.00041
87.00 0.00038
87.50 0.00036
88.00 0.00033
88.50 0.00031
89.00 0.00030
89.50 0.00028
90.00 0.00027
90.00 0.00027
90.50 0.00028
91.00 0.00030
91.50 0.00031
92.00 0.00033
92.50 0.00036
93.00 0.00038
93.50 0.00041
94.00 0.00046
94.50 0.00051
95.00 0.00057
95.50 0.00063
96.00 0.00069
96.50 0.00079
97.00 0.00088
97.50 0.00100
98.00 0.00114
98.50 0.00128
99.00 0.00143
99.50 0.00163
100.00 0.00184
100.50 0.00204
101.00 0.00240
101.50 0.00277
102.00 0.00314
102.50 0.00352
103.00 0.00391
103.50 0.00440
104.00 0.00513
104.50 0.00588
105.00 0.00673
105.50 0.00759
106.00 0.00845
106.50 0.01004
107.00 0.01167
107.50 0.01329
108.00 0.01492
108.50 0.01656
109.00 0.01864
109.50 0.02203
110.00 0.02558
110.50 0.02913
111.00 0.03268
111.50 0.03622
112.00 0.04127
112.50 0.04772
113.00 0.05435
113.50 0.06306
114.00 0.07175
114.50 0.08043
115.00 0.09304
115.50 0.10669
116.00 0.12035
116.50 0.13401
117.00 0.15076
117.50 0.16926
118.00 0.19705
118.50 0.22307
119.00 0.24643
119.50 0.26968
120.00 0.29281
120.50 0.31681
121.00 0.34626
121.50 0.37556
122.00 0.40002
122.50 0.42420
123.00 0.44821
123.50 0.47204
124.00 0.49181
124.50 0.51110
125.00 0.52869
125.50 0.54612
126.00 0.56338
126.50 0.58101
127.00 0.59996
127.50 0.61677
128.00 0.63352
128.50 0.65022
129.00 0.66482
129.50 0.67777
130.00 0.69199
130.50 0.70972
131.00 0.72389
131.50 0.73805
132.00 0.75373
132.50 0.76949
133.00 0.78618
133.50 0.80294
134.00 0.82042
134.50 0.83874
135.00 0.85677
135.50 0.87592
136.00 0.89538
136.50 0.91526
137.00 0.93548
137.50 0.95574
138.00 0.97708
138.50 0.99851
139.00 1.02021
139.50 1.04233
140.00 1.06457
140.50 1.08727
141.00 1.11026
141.50 1.13324
142.00 1.15625
142.50 1.17828
143.00 1.20034
143.50 1.22284
144.00 1.24606
144.50 1.26754
145.00 1.28573
145.50 1.30467
146.00 1.32380
146.50 1.34294
147.00 1.36211
147.50 1.38129
148.00 1.39986
148.50 1.41516
149.00 1.43068
149.50 1.44763
150.00 1.46492
150.50 1.48228
151.00 1.49969
151.50 1.51716
152.00 1.53416
152.50 1.55111
153.00 1.56691
153.50 1.58129
154.00 1.59571
154.50 1.61016
155.00 1.62466
155.50 1.64050
156.00 1.65409
156.50 1.66037
157.00 1.66875
157.50 1.67790
158.00 1.68710
158.50 1.69633
159.00 1.70432
159.50 1.70675
160.00 1.70925
160.50 1.71285
161.00 1.71694
161.50 1.72111
162.00 1.72535
162.50 1.72910
163.00 1.73112
163.50 1.73339
164.00 1.73585
164.50 1.73848
165.00 1.74120
165.50 1.74403
166.00 1.74696
166.50 1.74902
167.00 1.75080
167.50 1.75204
168.00 1.75195
168.50 1.75195
169.00 1.75204
169.50 1.75224
170.00 1.75115
170.50 1.74924
171.00 1.74636
171.50 1.74484
172.00 1.74383
172.50 1.74296
173.00 1.74221
173.50 1.74117
174.00 1.73973
174.50 1.73843
175.00 1.73767
175.50 1.73720
176.00 1.73685
176.50 1.73651
177.00 1.73630
177.50 1.73623
178.00 1.73630
178.50 1.73639
179.00 1.73662
179.50 1.73698
180.00 1.73747
180.00 1.73747
180.50 1.73698
181.00 1.73662
181.50 1.73639
182.00 1.73630
182.50 1.73623
183.00 1.73630
183.50 1.73651
184.00 1.73685
184.50 1.73720
185.00 1.73767
185.50 1.73843
186.00 1.73973
186.50 1.74117
187.00 1.74221
187.50 1.74296
188.00 1.74383
188.50 1.74484
189.00 1.74636
189.50 1.74924
190.00 1.75115
190.50 1.75224
191.00 1.75204
191.50 1.75195
192.00 1.75195
192.50 1.75204
193.00 1.75080
193.50 1.74902
194.00 1.74696
194.50 1.74403
195.00 1.74120
195.50 1.73848
196.00 1.73585
196.50 1.73339
197.00 1.73112
197.50 1.72910
198.00 1.72535
198.50 1.72111
199.00 1.71694
199.50 1.71285
200.00 1.70925
200.50 1.70675
201.00 1.70432
201.50 1.69633
202.00 1.68710
202.50 1.67790
203.00 1.66875
203.50 1.66037
204.00 1.65409
204.50 1.64050
205.00 1.62466
205.50 1.61016
206.00 1.59571
206.50 1.58129
207.00 1.56691
207.50 1.55111
208.00 1.53416
208.50 1.51716
209.00 1.49969
209.50 1.48228
210.00 1.46492
210.50 1.44763
211.00 1.43068
211.50 1.41516
212.00 1.39986
212.50 1.38129
213.00 1.36211
213.50 1.34294
214.00 1.32380
214.50 1.30467
215.00 1.28573
215.50 1.26754
216.00 1.24606
216.50 1.22284
217.00 1.20034
217.50 1.17828
218.00 1.15625
218.50 1.13324
219.00 1.11026
219.50 1.08727
220.00 1.06457
220.50 1.04233
221.00 1.02021
221.50 0.99851
222.00 0.97708
222.50 0.95574
223.00 0.93548
223.50 0.91526
224.00 0.89538
224.50 0.87592
225.00 0.85677
225.50 0.83874
226.00 0.82042
226.50 0.80294
227.00 0.78618
227.50 0.76949
228.00 0.75373
228.50 0.73805
229.00 0.72389
229.50 0.70972
230.00 0.69199
230.50 0.67777
231.00 0.66482
231.50 0.65022
232.00 0.63352
232.50 0.61677
233.00 0.59996
233.50 0.58101
234.00 0.56338
234.50 0.54612
235.00 0.52869
235.50 0.51110
236.00 0.49181
236.50 0.47204
237.00 0.44821
237.50 0.42420
238.00 0.40002
238.50 0.37556
239.00 0.34626
239.50 0.31681
240.00 0.29281
240.50 0.26968
241.00 0.24643
241.50 0.22307
242.00 0.19705
242.50 0.16926
243.00 0.15076
243.50 0.13401
244.00 0.12035
244.50 0.10669
245.00 0.09304
245.50 0.08043
246.00 0.07175
246.50 0.06306
247.00 0.05435
247.50 0.04772
248.00 0.04127
248.50 0.03622
249.00 0.03268
249.50 0.02913
250.00 0.02558
250.50 0.02203
251.00 0.01864
251.50 0.01656
252.00 0.01492
252.50 0.01329
253.00 0.01167
253.50 0.01004
254.00 0.00845
254.50 0.00759
255.00 0.00673
255.50 0.00588
256.00 0.00513
256.50 0.00440
257.00 0.00391
257.50 0.00352
258.00 0.00314
258.50 0.00277
259.00 0.00240
259.50 0.00204
260.00 0.00184
260.50 0.00163
261.00 0.00143
261.50 0.00128
262.00 0.00114
262.50 0.00100
263.00 0.00088
263.50 0.00079
264.00 0.00069
264.50 0.00063
265.00 0.00057
265.50 0.00051
266.00 0.00046
266.50 0.00041
267.00 0.00038
267.50 0.00036
268.00 0.00033
268.50 0.00031
269.00 0.00030
269.50 0.00028
270.00 0.00027
270.00 0.00027
270.50 0.00028
271.00 0.00030
271.50 0.00031
272.00 0.00033
272.50 0.00036
273.00 0.00038
273.50 0.00041
274.00 0.00046
274.50 0.00051
275.00 0.00057
275.50 0.00063
276.00 0.00069
276.50 0.00079
277.00 0.00088
277.50 0.00100
278.00 0.00114
278.50 0.00128
279.00 0.00143
279.50 0.00163
280.00 0.00184
280.50 0.00204
281.00 0.00240
281.50 0.00277
282.00 0.00314
282.50 0.00352
283.00 0.00391
283.50 0.00440
284.00 0.00513
284.50 0.00588
285.00 0.00673
285.50 0.00759
286.00 0.00845
286.50 0.01004
287.00 0.01167
287.50 0.01329
288.00 0.01492
288.50 0.01656
289.00 0.01864
289.50 0.02203
290.00 0.02558
290.50 0.02913
291.00 0.03268
291.50 0.03622
292.00 0.04127
292.50 0.04772
293.00 0.05435
293.50 0.06306
294.00 0.07175
294.50 0.08043
295.00 0.09304
295.50 0.10669
296.00 0.12035
296.50 0.13401
297.00 0.15076
297.50 0.16926
298.00 0.19705
298.50 0.22307
299.00 0.24643
299.50 0.26968
300.00 0.29281
300.50 0.31681
301.00 0.34626
301.50 0.37556
302.00 0.40002
302.50 0.42420
303.00 0.44821
303.50 0.47204
304.00 0.49181
304.50 0.51110
305.00 0.52869
305.50 0.54612
306.00 0.56338
306.50 0.58101
307.00 0.59996
307.50 0.61677
308.00 0.63352
308.50 0.65022
309.00 0.66482
309.50 0.67777
310.00 0.69199
310.50 0.70972
311.00 0.72389
311.50 0.73805
312.00 0.75373
312.50 0.76949
313.00 0.78618
313.50 0.80294
314.00 0.82042
314.50 0.83874
315.00 0.85677
315.50 0.87592
316.00 0.89538
316.50 0.91526
317.00 0.93548
317.50 0.95574
318.00 0.97708
318.50 0.99851
319.00 1.02021
319.50 1.04233
320.00 1.06457
320.50 1.08727
321.00 1.11026
321.50 1.13324
322.00 1.15625
322.50 1.17828
323.00 1.20034
323.50 1.22284
324.00 1.24606
324.50 1.26754
325.00 1.28573
325.50 1.30467
326.00 1.32380
326.50 1.34294
327.00 1.36211
327.50 1.38129
328.00 1.39986
328.50 1.41516
329.00 1.43068
329.50 1.44763
330.00 1.46492
330.50 1.48228
331.00 1.49969
331.50 1.51716
332.00 1.53416
332.50 1.55111
333.00 1.56691
333.50 1.58129
334.00 1.59571
334.50 1.61016
335.00 1.62466
335.50 1.64050
336.00 1.65409
336.50 1.66037
337.00 1.66875
337.50 1.67790
338.00 1.68710
338.50 1.69633
339.00 1.70432
339.50 1.70675
340.00 1.70925
340.50 1.71285
341.00 1.71694
341.50 1.72111
342.00 1.72535
342.50 1.72910
343.00 1.73112
343.50 1.73339
344.00 1.73585
344.50 1.73848
345.00 1.74120
345.50 1.74403
346.00 1.74696
346.50 1.74902
347.00 1.75080
347.50 1.75204
348.00 1.75195
348.50 1.75195
349.00 1.75204
349.50 1.75224
350.00 1.75115
350.50 1.74924
351.00 1.74636
351.50 1.74484
352.00 1.74383
352.50 1.74296
353.00 1.74221
353.50 1.74117
354.00 1.73973
354.50 1.73843
355.00 1.73767
355.50 1.73720
356.00 1.73685
356.50 1.73651
357.00 1.73630
357.50 1.73623
358.00 1.73630
358.50 1.73639
359.00 1.73662
359.50 1.73698
360.00 1.73747
