phi[deg] B[T]
0.00 1.33497
0.50 1.33403
1.00 1.33339
1.50 1.33192
2.00 1.32890
2.50 1.32615
3.00 1.32349
3.50 1.31843
4.00 1.31315
4.50 1.30782
5.00 1.30242
5.50 1.29587
6.00 1.28650
6.50 1.27706
7.00 1.26809
7.50 1.25910
8.00 1.24469
8.50 1.23018
9.00 1.21557
9.50 1.20136
10.00 1.18460
10.50 1.16767
11.00 1.15059
11.50 1.13296
12.00 1.11463
12.50 1.09118
13.00 1.06557
13.50 1.03979
14.00 1.01385
14.50 0.98782
15.00 0.96004
15.50 0.93202
16.00 0.90378
16.50 0.87389
17.00 0.84273
17.50 0.80661
18.00 0.77018
18.50 0.73353
19.00 0.69666
19.50 0.66195
20.00 0.62796
20.50 0.59374
21.00 0.55930
21.50 0.52205
22.00 0.47875
22.50 0.44317
23.00 0.41101
23.50 0.37873
24.00 0.34633
24.50 0.31166
25.00 0.28711
25.50 0.26415
26.00 0.24116
26.50 0.21814
27.00 0.19408
27.50 0.17277
28.00 0.15872
28.50 0.14693
29.00 0.13515
29.50 0.12339
30.00 0.11163
30.50 0.09988
31.00 0.08815
31.50 0.07680
32.00 0.06713
32.50 0.06067
33.00 0.05589
33.50 0.05161
34.00 0.04734
34.50 0.04307
35.00 0.03882
35.50 0.03456
36.00 0.03032
36.50 0.02628
37.00 0.02357
37.50 0.02126
38.00 0.01961
38.50 0.01795
39.00 0.01617
39.50 0.01439
40.00 0.01261
40.50 0.01138
41.00 0.01041
41.50 0.00945
42.00 0.00848
42.50 0.00753
43.00 0.00682
43.50 0.00623
44.00 0.00563
44.50 0.00504
45.00 0.00444
45.50 0.00409
46.00 0.00373
46.50 0.00337
47.00 0.00302
47.50 0.00266
48.00 0.00245
48.50 0.00225
49.00 0.00205
49.50 0.00185
50.00 0.00164
50.50 0.00148
51.00 0.00135
51.50 0.00123
52.00 0.00114
52.50 0.00105
53.00 0.00096
53.50 0.00088
54.00 0.00079
54.50 0.00071
55.00 0.00067
55.50 0.00064
56.00 0.00060
56.50 0.00057
57.00 0.00053
57.50 0.00049
58.00 0.00046
58.50 0.00043
59.00 0.00041
59.50 0.00040
60.00 0.00038
60.50 0.00036
61.00 0.00035
61.50 0.00033
62.00 0.00032
62.50 0.00030
63.00 0.00030
63.50 0.00029
64.00 0.00028
64.50 0.00027
65.00 0.00027
65.50 0.00026
66.00 0.00025
66.50 0.00024
67.00 0.00024
67.50 0.00023
68.00 0.00023
68.50 0.00022
69.00 0.00021
69.50 0.00021
70.00 0.00020
70.50 0.00020
71.00 0.00019
71.50 0.00019
72.00 0.00018
72.50 0.00018
73.00 0.00017
73.50 0.00017
74.00 0.00016
74.50 0.00016
75.00 0.00015
75.50 0.00015
76.00 0.00014
76.50 0.00014
77.00 0.00013
77.50 0.00013
78.00 0.00012
78.50 0.00012
79.00 0.00011
79.50 0.00011
80.00 0.00010
80.50 0.00010
81.00 0.00009
81.50 0.00009
82.00 0.00008
82.50 0.00008
83.00 0.00007
83.50 0.00007
84.00 0.00006
84.50 0.00006
85.00 0.00005
85.50 0.00005
86.00 0.00004
86.50 0.00004
87.00 0.00003
87.50 0.00003
88.00 0.00002
88.50 0.00002
89.00 0.00002
89.50 0.00002
90.00 0.00001
90.00 0.00001
90.50 0.00002
91.00 0.00002
91.50 0.00002
92.00 0.00002
92.50 0.00003
93.00 0.00003
93.50 0.00004
94.00 0.00004
94.50 0.00005
95.00 0.00005
95.50 0.00006
96.00 0.00006
96.50 0.00007
97.00 0.00007
97.50 0.00008
98.00 0.00008
98.50 0.00009
99.00 0.00009
99.50 0.00010
100.00 0.00010
100.50 0.00011
101.00 0.00011
101.50 0.00012
102.00 0.00012
102.50 0.00013
103.00 0.00013
103.50 0.00014
104.00 0.00014
104.50 0.00015
105.00 0.00015
105.50 0.00016
106.00 0.00016
106.50 0.00017
107.00 0.00017
107.50 0.00018
108.00 0.00018
108.50 0.00019
109.00 0.00019
109.50 0.00020
110.00 0.00020
110.50 0.00021
111.00 0.00021
111.50 0.00022
112.00 0.00023
112.50 0.00023
113.00 0.00024
113.50 0.00024
114.00 0.00025
114.50 0.00026
115.00 0.00027
115.50 0.00027
116.00 0.00028
116.50 0.00029
117.00 0.00030
117.50 0.00030
118.00 0.00032
118.50 0.00033
119.00 0.00035
119.50 0.00036
120.00 0.00038
120.50 0.00040
121.00 0.00041
121.50 0.00043
122.00 0.00046
122.50 0.00049
123.00 0.00053
123.50 0.00057
124.00 0.00060
124.50 0.00064
125.00 0.00067
125.50 0.00071
126.00 0.00079
126.50 0.00088
127.00 0.00096
127.50 0.00105
128.00 0.00114
128.50 0.00123
129.00 0.00135
129.50 0.00148
130.00 0.00164
130.50 0.00185
131.00 0.00205
131.50 0.00225
132.00 0.00245
132.50 0.00266
133.00 0.00302
133.50 0.00337
134.00 0.00373
134.50 0.00409
135.00 0.00444
135.50 0.00504
136.00 0.00563
136.50 0.00623
137.00 0.00682
137.50 0.00753
138.00 0.00848
138.50 0.00945
139.00 0.01041
139.50 0.01138
140.00 0.01261
140.50 0.01439
141.00 0.01617
141.50 0.01795
142.00 0.01961
142.50 0.02126
143.00 0.02357
143.50 0.02628
144.00 0.03032
144.50 0.03456
145.00 0.03882
145.50 0.04307
146.00 0.04734
146.50 0.05161
147.00 0.05589
147.50 0.06067
148.00 0.06713
148.50 0.07680
149.00 0.08815
149.50 0.09988
150.00 0.11163
150.50 0.12339
151.00 0.13515
151.50 0.14693
152.00 0.15872
152.50 0.17277
153.00 0.19408
153.50 0.21814
154.00 0.24116
154.50 0.26415
155.00 0.28711
155.50 0.31166
156.00 0.34633
156.50 0.37873
157.00 0.41101
157.50 0.44317
158.00 0.47875
158.50 0.52205
159.00 0.55930
159.50 0.59374
160.00 0.62796
160.50 0.66195
161.00 0.69666
161.50 0.73353
162.00 0.77018
162.50 0.80661
163.00 0.84273
163.50 0.87389
164.00 0.90378
164.50 0.93202
165.00 0.96004
165.50 0.98782
166.00 1.01385
166.50 1.03979
167.00 1.06557
167.50 1.09118
168.00 1.11463
168.50 1.13296
169.00 1.15059
169.50 1.16767
170.00 1.18460
170.50 1.20136
171.00 1.21557
171.50 1.23018
172.00 1.24469
172.50 1.25910
173.00 1.26809
173.50 1.27706
174.00 1.28650
174.50 1.29587
175.00 1.30242
175.50 1.30782
176.00 1.31315
176.50 1.31843
177.00 1.32349
177.50 1.32615
178.00 1.32890
178.50 1.33192
179.00 1.33339
179.50 1.33403
180.00 1.33497
180.00 1.33497
180.50 1.33403
181.00 1.33339
181.50 1.33192
182.00 1.32890
182.50 1.32615
183.00 1.32349
183.50 1.31843
184.00 1.31315
184.50 1.30782
185.00 1.30242
185.50 1.29587
186.00 1.28650
186.50 1.27706
187.00 1.26809
187.50 1.25910
188.00 1.24469
188.50 1.23018
189.00 1.21557
189.50 1.20136
190.00 1.18460
190.50 1.16767
191.00 1.15059
191.50 1.13296
192.00 1.11463
192.50 1.09118
193.00 1.06557
193.50 1.03979
194.00 1.01385
194.50 0.98782
195.00 0.96004
195.50 0.93202
196.00 0.90378
196.50 0.87389
197.00 0.84273
197.50 0.80661
198.00 0.77018
198.50 0.73353
199.00 0.69666
199.50 0.66195
200.00 0.62796
200.50 0.59374
201.00 0.55930
201.50 0.52205
202.00 0.47875
202.50 0.44317
203.00 0.41101
203.50 0.37873
204.00 0.34633
204.50 0.31166
205.00 0.28711
205.50 0.26415
206.00 0.24116
206.50 0.21814
207.00 0.19408
207.50 0.17277
208.00 0.15872
208.50 0.14693
209.00 0.13515
209.50 0.12339
210.00 0.11163
210.50 0.09988
211.00 0.08815
211.50 0.07680
212.00 0.06713
212.50 0.06067
213.00 0.05589
213.50 0.05161
214.00 0.04734
214.50 0.04307
215.00 0.03882
215.50 0.03456
216.00 0.03032
216.50 0.02628
217.00 0.02357
217.50 0.02126
218.00 0.01961
218.50 0.01795
219.00 0.01617
219.50 0.01439
220.00 0.01261
220.50 0.01138
221.00 0.01041
221.50 0.00945
222.00 0.00848
222.50 0.00753
223.00 0.00682
223.50 0.00623
224.00 0.00563
224.50 0.00504
225.00 0.00444
225.50 0.00409
226.00 0.00373
226.50 0.00337
227.00 0.00302
227.50 0.00266
228.00 0.00245
228.50 0.00225
229.00 0.00205
229.50 0.00185
230.00 0.00164
230.50 0.00148
231.00 0.00135
231.50 0.00123
232.00 0.00114
232.50 0.00105
233.00 0.00096
233.50 0.00088
234.00 0.00079
234.50 0.00071
235.00 0.00067
235.50 0.00064
236.00 0.00060
236.50 0.00057
237.00 0.00053
237.50 0.00049
238.00 0.00046
238.50 0.00043
239.00 0.00041
239.50 0.00040
240.00 0.00038
240.50 0.00036
241.00 0.00035
241.50 0.00033
242.00 0.00032
242.50 0.00030
243.00 0.00030
243.50 0.00029
244.00 0.00028
244.50 0.00027
245.00 0.00027
245.50 0.00026
246.00 0.00025
246.50 0.00024
247.00 0.00024
247.50 0.00023
248.00 0.00023
248.50 0.00022
249.00 0.00021
249.50 0.00021
250.00 0.00020
250.50 0.00020
251.00 0.00019
251.50 0.00019
252.00 0.00018
252.50 0.00018
253.00 0.00017
253.50 0.00017
254.00 0.00016
254.50 0.00016
255.00 0.00015
255.50 0.00015
256.00 0.00014
256.50 0.00014
257.00 0.00013
257.50 0.00013
258.00 0.00012
258.50 0.00012
259.00 0.00011
259.50 0.00011
260.00 0.00010
260.50 0.00010
261.00 0.00009
261.50 0.00009
262.00 0.00008
262.50 0.00008
263.00 0.00007
263.50 0.00007
264.00 0.00006
264.50 0.00006
265.00 0.00005
265.50 0.00005
266.00 0.00004
266.50 0.00004
267.00 0.00003
267.50 0.00003
268.00 0.00002
268.50 0.00002
269.00 0.00002
269.50 0.00002
270.00 0.00001
270.00 0.00001
270.50 0.00002
271.00 0.00002
271.50 0.00002
272.00 0.00002
272.50 0.00003
273.00 0.00003
273.50 0.00004
274.00 0.00004
274.50 0.00005
275.00 0.00005
275.50 0.00006
276.00 0.00006
276.50 0.00007
277.00 0.00007
277.50 0.00008
278.00 0.00008
278.50 0.00009
279.00 0.00009
279.50 0.00010
280.00 0.00010
280.50 0.00011
281.00 0.00011
281.50 0.00012
282.00 0.00012
282.50 0.00013
283.00 0.00013
283.50 0.00014
284.00 0.00014
284.50 0.00015
285.00 0.00015
285.50 0.00016
286.00 0.00016
286.50 0.00017
287.00 0.00017
287.50 0.00018
288.00 0.00018
288.50 0.00019
289.00 0.00019
289.50 0.00020
290.00 0.00020
290.50 0.00021
291.00 0.00021
291.50 0.00022
292.00 0.00023
292.50 0.00023
293.00 0.00024
293.50 0.00024
294.00 0.00025
294.50 0.00026
295.00 0.00027
295.50 0.00027
296.00 0.00028
296.50 0.00029
297.00 0.00030
297.50 0.00030
298.00 0.00032
298.50 0.00033
299.00 0.00035
299.50 0.00036
300.00 0.00038
300.50 0.00040
301.00 0.00041
301.50 0.00043
302.00 0.00046
302.50 0.00049
303.00 0.00053
303.50 0.00057
304.00 0.00060
304.50 0.00064
305.00 0.00067
305.50 0.00071
306.00 0.00079
306.50 0.00088
307.00 0.00096
307.50 0.00105
308.00 0.00114
308.50 0.00123
309.00 0.00135
309.50 0.00148
310.00 0.00164
310.50 0.00185
311.00 0.00205
311.50 0.00225
312.00 0.00245
312.50 0.00266
313.00 0.00302
313.50 0.00337
314.00 0.00373
314.50 0.00409
315.00 0.00444
315.50 0.00504
316.00 0.00563
316.50 0.00623
317.00 0.00682
317.50 0.00753
318.00 0.00848
318.50 0.00945
319.00 0.01041
319.50 0.01138
320.00 0.01261
320.50 0.01439
321.00 0.01617
321.50 0.01795
322.00 0.01961
322.50 0.02126
323.00 0.02357
323.50 0.02628
324.00 0.03032
324.50 0.03456
325.00 0.03882
325.50 0.04307
326.00 0.04734
326.50 0.05161
327.00 0.05589
327.50 0.06067
328.00 0.06713
328.50 0.07680
329.00 0.08815
329.50 0.09988
330.00 0.11163
330.50 0.12339
331.00 0.13515
331.50 0.14693
332.00 0.15872
332.50 0.17277
333.00 0.19408
333.50 0.21814
334.00 0.24116
334.50 0.26415
335.00 0.28711
335.50 0.31166
336.00 0.34633
336.50 0.37873
337.00 0.41101
337.50 0.44317
338.00 0.47875
338.50 0.52205
339.00 0.55930
339.50 0.59374
340.00 0.62796
340.50 0.66195
341.00 0.69666
341.50 0.73353
342.00 0.77018
342.50 0.80661
343.00 0.84273
343.50 0.87389
344.00 0.90378
344.50 0.93202
345.00 0.96004
345.50 0.98782
346.00 1.01385
346.50 1.03979
347.00 1.06557
347.50 1.09118
348.00 1.11463
348.50 1.13296
349.00 1.15059
349.50 1.16767
350.00 1.18460
350.50 1.20136
351.00 1.21557
351.50 1.23018
352.00 1.24469
352.50 1.25910
353.00 1.26809
353.50 1.27706
354.00 1.28650
354.50 1.29587
355.00 1.30242
355.50 1.30782
356.00 1.31315
356.50 1.31843
357.00 1.32349
357.50 1.32615
358.00 1.32890
358.50 1.33192
359.00 1.33339
359.50 1.33403
360.00 1.33497
