phi[deg] B[T]
0.00 1.53759
0.50 1.53692
1.00 1.53636
1.50 1.53591
2.00 1.53548
2.50 1.53496
3.00 1.53457
3.50 1.53430
4.00 1.53416
4.50 1.53424
5.00 1.53444
5.50 1.53499
6.00 1.53575
6.50 1.53664
7.00 1.53736
7.50 1.53810
8.00 1.53897
8.50 1.53995
9.00 1.54234
9.50 1.54473
10.00 1.54644
10.50 1.54725
11.00 1.54755
11.50 1.54795
12.00 1.54842
12.50 1.54743
13.00 1.54604
13.50 1.54462
14.00 1.54271
14.50 1.54089
15.00 1.53916
15.50 1.53709
16.00 1.53494
16.50 1.53285
17.00 1.52972
17.50 1.52669
18.00 1.52375
18.50 1.52143
19.00 1.52035
19.50 1.51891
20.00 1.51734
20.50 1.51265
21.00 1.50779
21.50 1.50296
22.00 1.49794
22.50 1.49188
23.00 1.48587
23.50 1.47753
24.00 1.46673
24.50 1.45595
25.00 1.44401
25.50 1.42917
26.00 1.41437
26.50 1.39934
27.00 1.38400
27.50 1.36870
28.00 1.35345
28.50 1.33789
29.00 1.32194
29.50 1.30716
30.00 1.29201
30.50 1.27593
31.00 1.25989
31.50 1.24391
32.00 1.22797
32.50 1.21387
33.00 1.19983
33.50 1.18331
34.00 1.16512
34.50 1.14696
35.00 1.12882
35.50 1.11144
36.00 1.09462
36.50 1.07500
37.00 1.05388
37.50 1.03307
38.00 1.01316
38.50 0.99325
39.00 0.97276
39.50 0.95230
40.00 0.93190
40.50 0.91163
41.00 0.89203
41.50 0.87274
42.00 0.85349
42.50 0.83440
43.00 0.81620
43.50 0.79809
44.00 0.78053
44.50 0.76336
45.00 0.74626
45.50 0.73040
46.00 0.71455
46.50 0.69977
47.00 0.68612
47.50 0.67168
48.00 0.65926
48.50 0.64755
49.00 0.63525
49.50 0.62259
50.00 0.61067
50.50 0.60005
51.00 0.59283
51.50 0.58150
52.00 0.56781
52.50 0.55404
53.00 0.54018
53.50 0.52707
54.00 0.51743
54.50 0.50341
55.00 0.48462
55.50 0.46566
56.00 0.44653
56.50 0.42724
57.00 0.40904
57.50 0.39232
58.00 0.36338
58.50 0.33822
59.00 0.31533
59.50 0.29232
60.00 0.26815
60.50 0.24224
61.00 0.21621
61.50 0.19037
62.00 0.17111
62.50 0.15403
63.00 0.13669
63.50 0.11885
64.00 0.10099
64.50 0.08896
65.00 0.07910
65.50 0.06923
66.00 0.05954
66.50 0.05074
67.00 0.04525
67.50 0.03995
68.00 0.03465
68.50 0.02935
69.00 0.02521
69.50 0.02201
70.00 0.01932
70.50 0.01689
71.00 0.01446
71.50 0.01257
72.00 0.01113
72.50 0.00968
73.00 0.00835
73.50 0.00715
74.00 0.00613
74.50 0.00549
75.00 0.00486
75.50 0.00423
76.00 0.00359
76.50 0.00310
77.00 0.00276
77.50 0.00243
78.00 0.00209
78.50 0.00179
79.00 0.00161
79.50 0.00144
80.00 0.00126
80.50 0.00109
81.00 0.00095
81.50 0.00085
82.00 0.00076
82.50 0.00065
83.00 0.00058
83.50 0.00052
84.00 0.00046
84.50 0.00040
85.00 0.00035
85.50 0.00032
86.00 0.00028
86.50 0.00025
87.00 0.00022
87.50 0.00020
88.00 0.00018
88.50 0.00016
89.00 0.00015
89.50 0.00014
90.00 0.00013
90.00 0.00013
90.50 0.00014
91.00 0.00015
91.50 0.00016
92.00 0.00018
92.50 0.00020
93.00 0.00022
93.50 0.00025
94.00 0.00028
94.50 0.00032
95.00 0.00035
95.50 0.00040
96.00 0.00046
96.50 0.00052
97.00 0.00058
97.50 0.00065
98.00 0.00076
98.50 0.00085
99.00 0.00095
99.50 0.00109
100.00 0.00126
100.50 0.00144
101.00 0.00161
101.50 0.00179
102.00 0.00209
102.50 0.00243
103.00 0.00276
103.50 0.00310
104.00 0.00359
104.50 0.00423
105.00 0.00486
105.50 0.00549
106.00 0.00613
106.50 0.00715
107.00 0.00835
107.50 0.00968
108.00 0.01113
108.50 0.01257
109.00 0.01446
109.50 0.01689
110.00 0.01932
110.50 0.02201
111.00 0.02521
111.50 0.02935
112.00 0.03465
112.50 0.03995
113.00 0.04525
113.50 0.05074
114.00 0.05954
114.50 0.06923
115.00 0.07910
115.50 0.08896
116.00 0.10099
116.50 0.11885
117.00 0.13669
117.50 0.15403
118.00 0.17111
118.50 0.19037
119.00 0.21621
119.50 0.24224
120.00 0.26815
120.50 0.29232
121.00 0.31533
121.50 0.33822
122.00 0.36338
122.50 0.39232
123.00 0.40904
123.50 0.42724
124.00 0.44653
124.50 0.46566
125.00 0.48462
125.50 0.50341
126.00 0.51743
126.50 0.52707
127.00 0.54018
127.50 0.55404
128.00 0.56781
128.50 0.58150
129.00 0.59283
129.50 0.60005
130.00 0.61067
130.50 0.62259
131.00 0.63525
131.50 0.64755
132.00 0.65926
132.50 0.67168
133.00 0.68612
133.50 0.69977
134.00 0.71455
134.50 0.73040
135.00 0.74626
135.50 0.76336
136.00 0.78053
136.50 0.79809
137.00 0.81620
137.50 0.83440
138.00 0.85349
138.50 0.87274
139.00 0.89203
139.50 0.91163
140.00 0.93190
140.50 0.95230
141.00 0.97276
141.50 0.99325
142.00 1.01316
142.50 1.03307
143.00 1.05388
143.50 1.07500
144.00 1.09462
144.50 1.11144
145.00 1.12882
145.50 1.14696
146.00 1.16512
146.50 1.18331
147.00 1.19983
147.50 1.21387
148.00 1.22797
148.50 1.24391
149.00 1.25989
149.50 1.27593
150.00 1.29201
150.50 1.30716
151.00 1.32194
151.50 1.33789
152.00 1.35345
152.50 1.36870
153.00 1.38400
153.50 1.39934
154.00 1.41437
154.50 1.42917
155.00 1.44401
155.50 1.45595
156.00 1.46673
156.50 1.47753
157.00 1.48587
157.50 1.49188
158.00 1.49794
158.50 1.50296
159.00 1.50779
159.50 1.51265
160.00 1.51734
160.50 1.51891
161.00 1.52035
161.50 1.52143
162.00 1.52375
162.50 1.52669
163.00 1.52972
163.50 1.53285
164.00 1.53494
164.50 1.53709
165.00 1.53916
165.50 1.54089
166.00 1.54271
166.50 1.54462
167.00 1.54604
167.50 1.54743
168.00 1.54842
168.50 1.54795
169.00 1.54755
169.50 1.54725
170.00 1.54644
170.50 1.54473
171.00 1.54234
171.50 1.53995
172.00 1.53897
172.50 1.53810
173.00 1.53736
173.50 1.53664
174.00 1.53575
174.50 1.53499
175.00 1.53444
175.50 1.53424
176.00 1.53416
176.50 1.53430
177.00 1.53457
177.50 1.53496
178.00 1.53548
178.50 1.53591
179.00 1.53636
179.50 1.53692
180.00 1.53759
180.00 1.53759
180.50 1.53692
181.00 1.53636
181.50 1.53591
182.00 1.53548
182.50 1.53496
183.00 1.53457
183.50 1.53430
184.00 1.53416
184.50 1.53424
185.00 1.53444
185.50 1.53499
186.00 1.53575
186.50 1.53664
187.00 1.53736
187.50 1.53810
188.00 1.53897
188.50 1.53995
189.00 1.54234
189.50 1.54473
190.00 1.54644
190.50 1.54725
191.00 1.54755
191.50 1.54795
192.00 1.54842
192.50 1.54743
193.00 1.54604
193.50 1.54462
194.00 1.54271
194.50 1.54089
195.00 1.53916
195.50 1.53709
196.00 1.53494
196.50 1.53285
197.00 1.52972
197.50 1.52669
198.00 1.52375
198.50 1.52143
199.00 1.52035
199.50 1.51891
200.00 1.51734
200.50 1.51265
201.00 1.50779
201.50 1.50296
202.00 1.49794
202.50 1.49188
203.00 1.48587
203.50 1.47753
204.00 1.46673
204.50 1.45595
205.00 1.44401
205.50 1.42917
206.00 1.41437
206.50 1.39934
207.00 1.38400
207.50 1.36870
208.00 1.35345
208.50 1.33789
209.00 1.32194
209.50 1.30716
210.00 1.29201
210.50 1.27593
211.00 1.25989
211.50 1.24391
212.00 1.22797
212.50 1.21387
213.00 1.19983
213.50 1.18331
214.00 1.16512
214.50 1.14696
215.00 1.12882
215.50 1.11144
216.00 1.09462
216.50 1.07500
217.00 1.05388
217.50 1.03307
218.00 1.01316
218.50 0.99325
219.00 0.97276
219.50 0.95230
220.00 0.93190
220.50 0.91163
221.00 0.89203
221.50 0.87274
222.00 0.85349
222.50 0.83440
223.00 0.81620
223.50 0.79809
224.00 0.78053
224.50 0.76336
225.00 0.74626
225.50 0.73040
226.00 0.71455
226.50 0.69977
227.00 0.68612
227.50 0.67168
228.00 0.65926
228.50 0.64755
229.00 0.63525
229.50 0.62259
230.00 0.61067
230.50 0.60005
231.00 0.59283
231.50 0.58150
232.00 0.56781
232.50 0.55404
233.00 0.54018
233.50 0.52707
234.00 0.51743
234.50 0.50341
235.00 0.48462
235.50 0.46566
236.00 0.44653
236.50 0.42724
237.00 0.40904
237.50 0.39232
238.00 0.36338
238.50 0.33822
239.00 0.31533
239.50 0.29232
240.00 0.26815
240.50 0.24224
241.00 0.21621
241.50 0.19037
242.00 0.17111
242.50 0.15403
243.00 0.13669
243.50 0.11885
244.00 0.10099
244.50 0.08896
245.00 0.07910
245.50 0.06923
246.00 0.05954
246.50 0.05074
247.00 0.04525
247.50 0.03995
248.00 0.03465
248.50 0.02935
249.00 0.02521
249.50 0.02201
250.00 0.01932
250.50 0.01689
251.00 0.01446
251.50 0.01257
252.00 0.01113
252.50 0.00968
253.00 0.00835
253.50 0.00715
254.00 0.00613
254.50 0.00549
255.00 0.00486
255.50 0.00423
256.00 0.00359
256.50 0.00310
257.00 0.00276
257.50 0.00243
258.00 0.00209
258.50 0.00179
259.00 0.00161
259.50 0.00144
260.00 0.00126
260.50 0.00109
261.00 0.00095
261.50 0.00085
262.00 0.00076
262.50 0.00065
263.00 0.00058
263.50 0.00052
264.00 0.00046
264.50 0.00040
265.00 0.00035
265.50 0.00032
266.00 0.00028
266.50 0.00025
267.00 0.00022
267.50 0.00020
268.00 0.00018
268.50 0.00016
269.00 0.00015
269.50 0.00014
270.00 0.00013
270.00 0.00013
270.50 0.00014
271.00 0.00015
271.50 0.00016
272.00 0.00018
272.50 0.00020
273.00 0.00022
273.50 0.00025
274.00 0.00028
274.50 0.00032
275.00 0.00035
275.50 0.00040
276.00 0.00046
276.50 0.00052
277.00 0.00058
277.50 0.00065
278.00 0.00076
278.50 0.00085
279.00 0.00095
279.50 0.00109
280.00 0.00126
280.50 0.00144
281.00 0.00161
281.50 0.00179
282.00 0.00209
282.50 0.00243
283.00 0.00276
283.50 0.00310
284.00 0.00359
284.50 0.00423
285.00 0.00486
285.50 0.00549
286.00 0.00613
286.50 0.00715
287.00 0.00835
287.50 0.00968
288.00 0.01113
288.50 0.01257
289.00 0.01446
289.50 0.01689
290.00 0.01932
290.50 0.02201
291.00 0.02521
291.50 0.02935
292.00 0.03465
292.50 0.03995
293.00 0.04525
293.50 0.05074
294.00 0.05954
294.50 0.06923
295.00 0.07910
295.50 0.08896
296.00 0.10099
296.50 0.11885
297.00 0.13669
297.50 0.15403
298.00 0.17111
298.50 0.19037
299.00 0.21621
299.50 0.24224
300.00 0.26815
300.50 0.29232
301.00 0.31533
301.50 0.33822
302.00 0.36338
302.50 0.39232
303.00 0.40904
303.50 0.42724
304.00 0.44653
304.50 0.46566
305.00 0.48462
305.50 0.50341
306.00 0.51743
306.50 0.52707
307.00 0.54018
307.50 0.55404
308.00 0.56781
308.50 0.58150
309.00 0.59283
309.50 0.60005
310.00 0.61067
310.50 0.62259
311.00 0.63525
311.50 0.64755
312.00 0.65926
312.50 0.67168
313.00 0.68612
313.50 0.69977
314.00 0.71455
314.50 0.73040
315.00 0.74626
315.50 0.76336
316.00 0.78053
316.50 0.79809
317.00 0.81620
317.50 0.83440
318.00 0.85349
318.50 0.87274
319.00 0.89203
319.50 0.91163
320.00 0.93190
320.50 0.95230
321.00 0.97276
321.50 0.99325
322.00 1.01316
322.50 1.03307
323.00 1.05388
323.50 1.07500
324.00 1.09462
324.50 1.11144
325.00 1.12882
325.50 1.14696
326.00 1.16512
326.50 1.18331
327.00 1.19983
327.50 1.21387
328.00 1.22797
328.50 1.24391
329.00 1.25989
329.50 1.27593
330.00 1.29201
330.50 1.30716
331.00 1.32194
331.50 1.33789
332.00 1.35345
332.50 1.36870
333.00 1.38400
333.50 1.39934
334.00 1.41437
334.50 1.42917
335.00 1.44401
335.50 1.45595
336.00 1.46673
336.50 1.47753
337.00 1.48587
337.50 1.49188
338.00 1.49794
338.50 1.50296
339.00 1.50779
339.50 1.51265
340.00 1.51734
340.50 1.51891
341.00 1.52035
341.50 1.52143
342.00 1.52375
342.50 1.52669
343.00 1.52972
343.50 1.53285
344.00 1.53494
344.50 1.53709
345.00 1.53916
345.50 1.54089
346.00 1.54271
346.50 1.54462
347.00 1.54604
347.50 1.54743
348.00 1.54842
348.50 1.54795
349.00 1.54755
349.50 1.54725
350.00 1.54644
350.50 1.54473
351.00 1.54234
351.50 1.53995
352.00 1.53897
352.50 1.53810
353.00 1.53736
353.50 1.53664
354.00 1.53575
354.50 1.53499
355.00 1.53444
355.50 1.53424
356.00 1.53416
356.50 1.53430
357.00 1.53457
357.50 1.53496
358.00 1.53548
358.50 1.53591
359.00 1.53636
359.50 1.53692
360.00 1.53759
