phi[deg] B[T]
0.00 1.64262
0.50 1.64225
1.00 1.64201
1.50 1.64190
2.00 1.64190
2.50 1.64204
3.00 1.64231
3.50 1.64271
4.00 1.64323
4.50 1.64387
5.00 1.64460
5.50 1.64539
6.00 1.64630
6.50 1.64723
7.00 1.64799
7.50 1.64940
8.00 1.65093
8.50 1.65257
9.00 1.65291
9.50 1.65237
10.00 1.65193
10.50 1.65332
11.00 1.65486
11.50 1.65649
12.00 1.65615
12.50 1.65476
13.00 1.65345
13.50 1.65127
14.00 1.64916
14.50 1.64713
15.00 1.64525
15.50 1.64347
16.00 1.64177
16.50 1.63905
17.00 1.63576
17.50 1.63254
18.00 1.62922
18.50 1.62405
19.00 1.61895
19.50 1.61505
20.00 1.61136
20.50 1.60773
21.00 1.60188
21.50 1.59577
22.00 1.58973
22.50 1.58174
23.00 1.57240
23.50 1.56308
24.00 1.55356
24.50 1.54396
25.00 1.53438
25.50 1.52359
26.00 1.50890
26.50 1.49424
27.00 1.47961
27.50 1.46501
28.00 1.45093
28.50 1.43711
29.00 1.42191
29.50 1.40614
30.00 1.39042
30.50 1.37527
31.00 1.36064
31.50 1.34505
32.00 1.32903
32.50 1.31317
33.00 1.29737
33.50 1.28160
34.00 1.26289
34.50 1.24309
35.00 1.22551
35.50 1.20794
36.00 1.19036
36.50 1.17280
37.00 1.15453
37.50 1.13397
38.00 1.11342
38.50 1.09289
39.00 1.07237
39.50 1.05115
40.00 1.03093
40.50 1.01105
41.00 0.99119
41.50 0.97133
42.00 0.95052
42.50 0.93144
43.00 0.91236
43.50 0.89315
44.00 0.87355
44.50 0.85394
45.00 0.83420
45.50 0.81476
46.00 0.79563
46.50 0.77647
47.00 0.75716
47.50 0.73776
48.00 0.71834
48.50 0.69824
49.00 0.67873
49.50 0.65918
50.00 0.63969
50.50 0.62071
51.00 0.60171
51.50 0.58265
52.00 0.56352
52.50 0.54539
53.00 0.52857
53.50 0.51100
54.00 0.49269
54.50 0.47430
55.00 0.45522
55.50 0.43542
56.00 0.41554
56.50 0.39558
57.00 0.37677
57.50 0.35864
58.00 0.34043
58.50 0.32141
59.00 0.30065
59.50 0.27981
60.00 0.25888
60.50 0.23785
61.00 0.21898
61.50 0.20280
62.00 0.18658
62.50 0.17036
63.00 0.15501
63.50 0.14284
64.00 0.13064
64.50 0.11844
65.00 0.10622
65.50 0.09680
66.00 0.08873
66.50 0.08065
67.00 0.07255
67.50 0.06579
68.00 0.05929
68.50 0.05278
69.00 0.04772
69.50 0.04360
70.00 0.03948
70.50 0.03534
71.00 0.03140
71.50 0.02855
72.00 0.02570
72.50 0.02292
73.00 0.02100
73.50 0.01908
74.00 0.01716
74.50 0.01524
75.00 0.01390
75.50 0.01270
76.00 0.01150
76.50 0.01030
77.00 0.00928
77.50 0.00830
78.00 0.00733
78.50 0.00671
79.00 0.00621
79.50 0.00571
80.00 0.00521
80.50 0.00468
81.00 0.00415
81.50 0.00361
82.00 0.00336
82.50 0.00311
83.00 0.00286
83.50 0.00260
84.00 0.00235
84.50 0.00210
85.00 0.00194
85.50 0.00183
86.00 0.00171
86.50 0.00160
87.00 0.00148
87.50 0.00137
88.00 0.00133
88.50 0.00128
89.00 0.00124
89.50 0.00119
90.00 0.00115
90.00 0.00115
90.50 0.00119
91.00 0.00124
91.50 0.00128
92.00 0.00133
92.50 0.00137
93.00 0.00148
93.50 0.00160
94.00 0.00171
94.50 0.00183
95.00 0.00194
95.50 0.00210
96.00 0.00235
96.50 0.00260
97.00 0.00286
97.50 0.00311
98.00 0.00336
98.50 0.00361
99.00 0.00415
99.50 0.00468
100.00 0.00521
100.50 0.00571
101.00 0.00621
101.50 0.00671
102.00 0.00733
102.50 0.00830
103.00 0.00928
103.50 0.01030
104.00 0.01150
104.50 0.01270
105.00 0.01390
105.50 0.01524
106.00 0.01716
106.50 0.01908
107.00 0.02100
107.50 0.02292
108.00 0.02570
108.50 0.02855
109.00 0.03140
109.50 0.03534
110.00 0.03948
110.50 0.04360
111.00 0.04772
111.50 0.05278
112.00 0.05929
112.50 0.06579
113.00 0.07255
113.50 0.08065
114.00 0.08873
114.50 0.09680
115.00 0.10622
115.50 0.11844
116.00 0.13064
116.50 0.14284
117.00 0.15501
117.50 0.17036
118.00 0.18658
118.50 0.20280
119.00 0.21898
119.50 0.23785
120.00 0.25888
120.50 0.27981
121.00 0.30065
121.50 0.32141
122.00 0.34043
122.50 0.35864
123.00 0.37677
123.50 0.39558
124.00 0.41554
124.50 0.43542
125.00 0.45522
125.50 0.47430
126.00 0.49269
126.50 0.51100
127.00 0.52857
127.50 0.54539
128.00 0.56352
128.50 0.58265
129.00 0.60171
129.50 0.62071
130.00 0.63969
130.50 0.65918
131.00 0.67873
131.50 0.69824
132.00 0.71834
132.50 0.73776
133.00 0.75716
133.50 0.77647
134.00 0.79563
134.50 0.81476
135.00 0.83420
135.50 0.85394
136.00 0.87355
136.50 0.89315
137.00 0.91236
137.50 0.93144
138.00 0.95052
138.50 0.97133
139.00 0.99119
139.50 1.01105
140.00 1.03093
140.50 1.05115
141.00 1.07237
141.50 1.09289
142.00 1.11342
142.50 1.13397
143.00 1.15453
143.50 1.17280
144.00 1.19036
144.50 1.20794
145.00 1.22551
145.50 1.24309
146.00 1.26289
146.50 1.28160
147.00 1.29737
147.50 1.31317
148.00 1.32903
148.50 1.34505
149.00 1.36064
149.50 1.37527
150.00 1.39042
150.50 1.40614
151.00 1.42191
151.50 1.43711
152.00 1.45093
152.50 1.46501
153.00 1.47961
153.50 1.49424
154.00 1.50890
154.50 1.52359
155.00 1.53438
155.50 1.54396
156.00 1.55356
156.50 1.56308
157.00 1.57240
157.50 1.58174
158.00 1.58973
158.50 1.59577
159.00 1.60188
159.50 1.60773
160.00 1.61136
160.50 1.61505
161.00 1.61895
161.50 1.62405
162.00 1.62922
162.50 1.63254
163.00 1.63576
163.50 1.63905
164.00 1.64177
164.50 1.64347
165.00 1.64525
165.50 1.64713
166.00 1.64916
166.50 1.65127
167.00 1.65345
167.50 1.65476
168.00 1.65615
168.50 1.65649
169.00 1.65486
169.50 1.65332
170.00 1.65193
170.50 1.65237
171.00 1.65291
171.50 1.65257
172.00 1.65093
172.50 1.64940
173.00 1.64799
173.50 1.64723
174.00 1.64630
174.50 1.64539
175.00 1.64460
175.50 1.64387
176.00 1.64323
176.50 1.64271
177.00 1.64231
177.50 1.64204
178.00 1.64190
178.50 1.64190
179.00 1.64201
179.50 1.64225
180.00 1.64262
180.00 1.64262
180.50 1.64225
181.00 1.64201
181.50 1.64190
182.00 1.64190
182.50 1.64204
183.00 1.64231
183.50 1.64271
184.00 1.64323
184.50 1.64387
185.00 1.64460
185.50 1.64539
186.00 1.64630
186.50 1.64723
187.00 1.64799
187.50 1.64940
188.00 1.65093
188.50 1.65257
189.00 1.65291
189.50 1.65237
190.00 1.65193
190.50 1.65332
191.00 1.65486
191.50 1.65649
192.00 1.65615
192.50 1.65476
193.00 1.65345
193.50 1.65127
194.00 1.64916
194.50 1.64713
195.00 1.64525
195.50 1.64347
196.00 1.64177
196.50 1.63905
197.00 1.63576
197.50 1.63254
198.00 1.62922
198.50 1.62405
199.00 1.61895
199.50 1.61505
200.00 1.61136
200.50 1.60773
201.00 1.60188
201.50 1.59577
202.00 1.58973
202.50 1.58174
203.00 1.57240
203.50 1.56308
204.00 1.55356
204.50 1.54396
205.00 1.53438
205.50 1.52359
206.00 1.50890
206.50 1.49424
207.00 1.47961
207.50 1.46501
208.00 1.45093
208.50 1.43711
209.00 1.42191
209.50 1.40614
210.00 1.39042
210.50 1.37527
211.00 1.36064
211.50 1.34505
212.00 1.32903
212.50 1.31317
213.00 1.29737
213.50 1.28160
214.00 1.26289
214.50 1.24309
215.00 1.22551
215.50 1.20794
216.00 1.19036
216.50 1.17280
217.00 1.15453
217.50 1.13397
218.00 1.11342
218.50 1.09289
219.00 1.07237
219.50 1.05115
220.00 1.03093
220.50 1.01105
221.00 0.99119
221.50 0.97133
222.00 0.95052
222.50 0.93144
223.00 0.91236
223.50 0.89315
224.00 0.87355
224.50 0.85394
225.00 0.83420
225.50 0.81476
226.00 0.79563
226.50 0.77647
227.00 0.75716
227.50 0.73776
228.00 0.71834
228.50 0.69824
229.00 0.67873
229.50 0.65918
230.00 0.63969
230.50 0.62071
231.00 0.60171
231.50 0.58265
232.00 0.56352
232.50 0.54539
233.00 0.52857
233.50 0.51100
234.00 0.49269
234.50 0.47430
235.00 0.45522
235.50 0.43542
236.00 0.41554
236.50 0.39558
237.00 0.37677
237.50 0.35864
238.00 0.34043
238.50 0.32141
239.00 0.30065
239.50 0.27981
240.00 0.25888
240.50 0.23785
241.00 0.21898
241.50 0.20280
242.00 0.18658
242.50 0.17036
243.00 0.15501
243.50 0.14284
244.00 0.13064
244.50 0.11844
245.00 0.10622
245.50 0.09680
246.00 0.08873
246.50 0.08065
247.00 0.07255
247.50 0.06579
248.00 0.05929
248.50 0.05278
249.00 0.04772
249.50 0.04360
250.00 0.03948
250.50 0.03534
251.00 0.03140
251.50 0.02855
252.00 0.02570
252.50 0.02292
253.00 0.02100
253.50 0.01908
254.00 0.01716
254.50 0.01524
255.00 0.01390
255.50 0.01270
256.00 0.01150
256.50 0.01030
257.00 0.00928
257.50 0.00830
258.00 0.00733
258.50 0.00671
259.00 0.00621
259.50 0.00571
260.00 0.00521
260.50 0.00468
261.00 0.00415
261.50 0.00361
262.00 0.00336
262.50 0.00311
263.00 0.00286
263.50 0.00260
264.00 0.00235
264.50 0.00210
265.00 0.00194
265.50 0.00183
266.00 0.00171
266.50 0.00160
267.00 0.00148
267.50 0.00137
268.00 0.00133
268.50 0.00128
269.00 0.00124
269.50 0.00119
270.00 0.00115
270.00 0.00115
270.50 0.00119
271.00 0.00124
271.50 0.00128
272.00 0.00133
272.50 0.00137
273.00 0.00148
273.50 0.00160
274.00 0.00171
274.50 0.00183
275.00 0.00194
275.50 0.00210
276.00 0.00235
276.50 0.00260
277.00 0.00286
277.50 0.00311
278.00 0.00336
278.50 0.00361
279.00 0.00415
279.50 0.00468
280.00 0.00521
280.50 0.00571
281.00 0.00621
281.50 0.00671
282.00 0.00733
282.50 0.00830
283.00 0.00928
283.50 0.01030
284.00 0.01150
284.50 0.01270
285.00 0.01390
285.50 0.01524
286.00 0.01716
286.50 0.01908
287.00 0.02100
287.50 0.02292
288.00 0.02570
288.50 0.02855
289.00 0.03140
289.50 0.03534
290.00 0.03948
290.50 0.04360
291.00 0.04772
291.50 0.05278
292.00 0.05929
292.50 0.06579
293.00 0.07255
293.50 0.08065
294.00 0.08873
294.50 0.09680
295.00 0.10622
295.50 0.11844
296.00 0.13064
296.50 0.14284
297.00 0.15501
297.50 0.17036
298.00 0.18658
298.50 0.20280
299.00 0.21898
299.50 0.23785
300.00 0.25888
300.50 0.27981
301.00 0.30065
301.50 0.32141
302.00 0.34043
302.50 0.35864
303.00 0.37677
303.50 0.39558
304.00 0.41554
304.50 0.43542
305.00 0.45522
305.50 0.47430
306.00 0.49269
306.50 0.51100
307.00 0.52857
307.50 0.54539
308.00 0.56352
308.50 0.58265
309.00 0.60171
309.50 0.62071
310.00 0.63969
310.50 0.65918
311.00 0.67873
311.50 0.69824
312.00 0.71834
312.50 0.73776
313.00 0.75716
313.50 0.77647
314.00 0.79563
314.50 0.81476
315.00 0.83420
315.50 0.85394
316.00 0.87355
316.50 0.89315
317.00 0.91236
317.50 0.93144
318.00 0.95052
318.50 0.97133
319.00 0.99119
319.50 1.01105
320.00 1.03093
320.50 1.05115
321.00 1.07237
321.50 1.09289
322.00 1.11342
322.50 1.13397
323.00 1.15453
323.50 1.17280
324.00 1.19036
324.50 1.20794
325.00 1.22551
325.50 1.24309
326.00 1.26289
326.50 1.28160
327.00 1.29737
327.50 1.31317
328.00 1.32903
328.50 1.34505
329.00 1.36064
329.50 1.37527
330.00 1.39042
330.50 1.40614
331.00 1.42191
331.50 1.43711
332.00 1.45093
332.50 1.46501
333.00 1.47961
333.50 1.49424
334.00 1.50890
334.50 1.52359
335.00 1.53438
335.50 1.54396
336.00 1.55356
336.50 1.56308
337.00 1.57240
337.50 1.58174
338.00 1.58973
338.50 1.59577
339.00 1.60188
339.50 1.60773
340.00 1.61136
340.50 1.61505
341.00 1.61895
341.50 1.62405
342.00 1.62922
342.50 1.63254
343.00 1.63576
343.50 1.63905
344.00 1.64177
344.50 1.64347
345.00 1.64525
345.50 1.64713
346.00 1.64916
346.50 1.65127
347.00 1.65345
347.50 1.65476
348.00 1.65615
348.50 1.65649
349.00 1.65486
349.50 1.65332
350.00 1.65193
350.50 1.65237
351.00 1.65291
351.50 1.65257
352.00 1.65093
352.50 1.64940
353.00 1.64799
353.50 1.64723
354.00 1.64630
354.50 1.64539
355.00 1.64460
355.50 1.64387
356.00 1.64323
356.50 1.64271
357.00 1.64231
357.50 1.64204
358.00 1.64190
358.50 1.64190
359.00 1.64201
359.50 1.64225
360.00 1.64262
