phi[deg] B[T]
0.00 1.45678
0.50 1.45535
1.00 1.45434
1.50 1.45224
2.00 1.44803
2.50 1.44442
3.00 1.44033
3.50 1.43340
4.00 1.42639
4.50 1.41929
5.00 1.41205
5.50 1.40183
6.00 1.39059
6.50 1.37932
7.00 1.36834
7.50 1.35484
8.00 1.33816
8.50 1.32139
9.00 1.30452
9.50 1.28806
10.00 1.26877
10.50 1.24932
11.00 1.22972
11.50 1.20996
12.00 1.18931
12.50 1.16617
13.00 1.13899
13.50 1.11164
14.00 1.08413
14.50 1.05582
15.00 1.02662
15.50 0.99788
16.00 0.96892
16.50 0.93944
17.00 0.90869
17.50 0.87348
18.00 0.83724
18.50 0.80079
19.00 0.76444
19.50 0.72882
20.00 0.69401
20.50 0.65976
21.00 0.62528
21.50 0.58965
22.00 0.54798
22.50 0.50657
23.00 0.47323
23.50 0.43976
24.00 0.40616
24.50 0.37053
25.00 0.33450
25.50 0.30929
26.00 0.28404
26.50 0.25875
27.00 0.23282
27.50 0.20862
28.00 0.18939
28.50 0.17299
29.00 0.15820
29.50 0.14341
30.00 0.12864
30.50 0.11451
31.00 0.10155
31.50 0.09070
32.00 0.08351
32.50 0.07632
33.00 0.06997
33.50 0.06364
34.00 0.05732
34.50 0.05101
35.00 0.04470
35.50 0.03930
36.00 0.03580
36.50 0.03230
37.00 0.02879
37.50 0.02630
38.00 0.02383
38.50 0.02137
39.00 0.01891
39.50 0.01707
40.00 0.01533
40.50 0.01385
41.00 0.01264
41.50 0.01143
42.00 0.01022
42.50 0.00901
43.00 0.00823
43.50 0.00751
44.00 0.00680
44.50 0.00608
45.00 0.00537
45.50 0.00493
46.00 0.00450
46.50 0.00407
47.00 0.00364
47.50 0.00321
48.00 0.00295
48.50 0.00271
49.00 0.00247
49.50 0.00222
50.00 0.00198
50.50 0.00178
51.00 0.00161
51.50 0.00147
52.00 0.00137
52.50 0.00126
53.00 0.00115
53.50 0.00104
54.00 0.00094
54.50 0.00084
55.00 0.00079
55.50 0.00075
56.00 0.00071
56.50 0.00066
57.00 0.00062
57.50 0.00057
58.00 0.00053
58.50 0.00049
59.00 0.00047
59.50 0.00045
60.00 0.00043
60.50 0.00042
61.00 0.00040
61.50 0.00038
62.00 0.00036
62.50 0.00034
63.00 0.00033
63.50 0.00032
64.00 0.00032
64.50 0.00031
65.00 0.00030
65.50 0.00029
66.00 0.00028
66.50 0.00027
67.00 0.00026
67.50 0.00026
68.00 0.00025
68.50 0.00025
69.00 0.00024
69.50 0.00023
70.00 0.00023
70.50 0.00022
71.00 0.00022
71.50 0.00021
72.00 0.00020
72.50 0.00020
73.00 0.00019
73.50 0.00019
74.00 0.00018
74.50 0.00017
75.00 0.00017
75.50 0.00016
76.00 0.00016
76.50 0.00015
77.00 0.00015
77.50 0.00014
78.00 0.00014
78.50 0.00013
79.00 0.00013
79.50 0.00012
80.00 0.00011
80.50 0.00011
81.00 0.00010
81.50 0.00010
82.00 0.00009
82.50 0.00009
83.00 0.00008
83.50 0.00008
84.00 0.00007
84.50 0.00006
85.00 0.00006
85.50 0.00005
86.00 0.00005
86.50 0.00004
87.00 0.00004
87.50 0.00003
88.00 0.00003
88.50 0.00002
89.00 0.00002
89.50 0.00002
90.00 0.00002
90.00 0.00002
90.50 0.00002
91.00 0.00002
91.50 0.00002
92.00 0.00003
92.50 0.00003
93.00 0.00004
93.50 0.00004
94.00 0.00005
94.50 0.00005
95.00 0.00006
95.50 0.00006
96.00 0.00007
96.50 0.00008
97.00 0.00008
97.50 0.00009
98.00 0.00009
98.50 0.00010
99.00 0.00010
99.50 0.00011
100.00 0.00011
100.50 0.00012
101.00 0.00013
101.50 0.00013
102.00 0.00014
102.50 0.00014
103.00 0.00015
103.50 0.00015
104.00 0.00016
104.50 0.00016
105.00 0.00017
105.50 0.00017
106.00 0.00018
106.50 0.00019
107.00 0.00019
107.50 0.00020
108.00 0.00020
108.50 0.00021
109.00 0.00022
109.50 0.00022
110.00 0.00023
110.50 0.00023
111.00 0.00024
111.50 0.00025
112.00 0.00025
112.50 0.00026
113.00 0.00026
113.50 0.00027
114.00 0.00028
114.50 0.00029
115.00 0.00030
115.50 0.00031
116.00 0.00032
116.50 0.00032
117.00 0.00033
117.50 0.00034
118.00 0.00036
118.50 0.00038
119.00 0.00040
119.50 0.00042
120.00 0.00043
120.50 0.00045
121.00 0.00047
121.50 0.00049
122.00 0.00053
122.50 0.00057
123.00 0.00062
123.50 0.00066
124.00 0.00071
124.50 0.00075
125.00 0.00079
125.50 0.00084
126.00 0.00094
126.50 0.00104
127.00 0.00115
127.50 0.00126
128.00 0.00137
128.50 0.00147
129.00 0.00161
129.50 0.00178
130.00 0.00198
130.50 0.00222
131.00 0.00247
131.50 0.00271
132.00 0.00295
132.50 0.00321
133.00 0.00364
133.50 0.00407
134.00 0.00450
134.50 0.00493
135.00 0.00537
135.50 0.00608
136.00 0.00680
136.50 0.00751
137.00 0.00823
137.50 0.00901
138.00 0.01022
138.50 0.01143
139.00 0.01264
139.50 0.01385
140.00 0.01533
140.50 0.01707
141.00 0.01891
141.50 0.02137
142.00 0.02383
142.50 0.02630
143.00 0.02879
143.50 0.03230
144.00 0.03580
144.50 0.03930
145.00 0.04470
145.50 0.05101
146.00 0.05732
146.50 0.06364
147.00 0.06997
147.50 0.07632
148.00 0.08351
148.50 0.09070
149.00 0.10155
149.50 0.11451
150.00 0.12864
150.50 0.14341
151.00 0.15820
151.50 0.17299
152.00 0.18939
152.50 0.20862
153.00 0.23282
153.50 0.25875
154.00 0.28404
154.50 0.30929
155.00 0.33450
155.50 0.37053
156.00 0.40616
156.50 0.43976
157.00 0.47323
157.50 0.50657
158.00 0.54798
158.50 0.58965
159.00 0.62528
159.50 0.65976
160.00 0.69401
160.50 0.72882
161.00 0.76444
161.50 0.80079
162.00 0.83724
162.50 0.87348
163.00 0.90869
163.50 0.93944
164.00 0.96892
164.50 0.99788
165.00 1.02662
165.50 1.05582
166.00 1.08413
166.50 1.11164
167.00 1.13899
167.50 1.16617
168.00 1.18931
168.50 1.20996
169.00 1.22972
169.50 1.24932
170.00 1.26877
170.50 1.28806
171.00 1.30452
171.50 1.32139
172.00 1.33816
172.50 1.35484
173.00 1.36834
173.50 1.37932
174.00 1.39059
174.50 1.40183
175.00 1.41205
175.50 1.41929
176.00 1.42639
176.50 1.43340
177.00 1.44033
177.50 1.44442
178.00 1.44803
178.50 1.45224
179.00 1.45434
179.50 1.45535
180.00 1.45678
180.00 1.45678
180.50 1.45535
181.00 1.45434
181.50 1.45224
182.00 1.44803
182.50 1.44442
183.00 1.44033
183.50 1.43340
184.00 1.42639
184.50 1.41929
185.00 1.41205
185.50 1.40183
186.00 1.39059
186.50 1.37932
187.00 1.36834
187.50 1.35484
188.00 1.33816
188.50 1.32139
189.00 1.30452
189.50 1.28806
190.00 1.26877
190.50 1.24932
191.00 1.22972
191.50 1.20996
192.00 1.18931
192.50 1.16617
193.00 1.13899
193.50 1.11164
194.00 1.08413
194.50 1.05582
195.00 1.02662
195.50 0.99788
196.00 0.96892
196.50 0.93944
197.00 0.90869
197.50 0.87348
198.00 0.83724
198.50 0.80079
199.00 0.76444
199.50 0.72882
200.00 0.69401
200.50 0.65976
201.00 0.62528
201.50 0.58965
202.00 0.54798
202.50 0.50657
203.00 0.47323
203.50 0.43976
204.00 0.40616
204.50 0.37053
205.00 0.33450
205.50 0.30929
206.00 0.28404
206.50 0.25875
207.00 0.23282
207.50 0.20862
208.00 0.18939
208.50 0.17299
209.00 0.15820
209.50 0.14341
210.00 0.12864
210.50 0.11451
211.00 0.10155
211.50 0.09070
212.00 0.08351
212.50 0.07632
213.00 0.06997
213.50 0.06364
214.00 0.05732
214.50 0.05101
215.00 0.04470
215.50 0.03930
216.00 0.03580
216.50 0.03230
217.00 0.02879
217.50 0.02630
218.00 0.02383
218.50 0.02137
219.00 0.01891
219.50 0.01707
220.00 0.01533
220.50 0.01385
221.00 0.01264
221.50 0.01143
222.00 0.01022
222.50 0.00901
223.00 0.00823
223.50 0.00751
224.00 0.00680
224.50 0.00608
225.00 0.00537
225.50 0.00493
226.00 0.00450
226.50 0.00407
227.00 0.00364
227.50 0.00321
228.00 0.00295
228.50 0.00271
229.00 0.00247
229.50 0.00222
230.00 0.00198
230.50 0.00178
231.00 0.00161
231.50 0.00147
232.00 0.00137
232.50 0.00126
233.00 0.00115
233.50 0.00104
234.00 0.00094
234.50 0.00084
235.00 0.00079
235.50 0.00075
236.00 0.00071
236.50 0.00066
237.00 0.00062
237.50 0.00057
238.00 0.00053
238.50 0.00049
239.00 0.00047
239.50 0.00045
240.00 0.00043
240.50 0.00042
241.00 0.00040
241.50 0.00038
242.00 0.00036
242.50 0.00034
243.00 0.00033
243.50 0.00032
244.00 0.00032
244.50 0.00031
245.00 0.00030
245.50 0.00029
246.00 0.00028
246.50 0.00027
247.00 0.00026
247.50 0.00026
248.00 0.00025
248.50 0.00025
249.00 0.00024
249.50 0.00023
250.00 0.00023
250.50 0.00022
251.00 0.00022
251.50 0.00021
252.00 0.00020
252.50 0.00020
253.00 0.00019
253.50 0.00019
254.00 0.00018
254.50 0.00017
255.00 0.00017
255.50 0.00016
256.00 0.00016
256.50 0.00015
257.00 0.00015
257.50 0.00014
258.00 0.00014
258.50 0.00013
259.00 0.00013
259.50 0.00012
260.00 0.00011
260.50 0.00011
261.00 0.00010
261.50 0.00010
262.00 0.00009
262.50 0.00009
263.00 0.00008
263.50 0.00008
264.00 0.00007
264.50 0.00006
265.00 0.00006
265.50 0.00005
266.00 0.00005
266.50 0.00004
267.00 0.00004
267.50 0.00003
268.00 0.00003
268.50 0.00002
269.00 0.00002
269.50 0.00002
270.00 0.00002
270.00 0.00002
270.50 0.00002
271.00 0.00002
271.50 0.00002
272.00 0.00003
272.50 0.00003
273.00 0.00004
273.50 0.00004
274.00 0.00005
274.50 0.00005
275.00 0.00006
275.50 0.00006
276.00 0.00007
276.50 0.00008
277.00 0.00008
277.50 0.00009
278.00 0.00009
278.50 0.00010
279.00 0.00010
279.50 0.00011
280.00 0.00011
280.50 0.00012
281.00 0.00013
281.50 0.00013
282.00 0.00014
282.50 0.00014
283.00 0.00015
283.50 0.00015
284.00 0.00016
284.50 0.00016
285.00 0.00017
285.50 0.00017
286.00 0.00018
286.50 0.00019
287.00 0.00019
287.50 0.00020
288.00 0.00020
288.50 0.00021
289.00 0.00022
289.50 0.00022
290.00 0.00023
290.50 0.00023
291.00 0.00024
291.50 0.00025
292.00 0.00025
292.50 0.00026
293.00 0.00026
293.50 0.00027
294.00 0.00028
294.50 0.00029
295.00 0.00030
295.50 0.00031
296.00 0.00032
296.50 0.00032
297.00 0.00033
297.50 0.00034
298.00 0.00036
298.50 0.00038
299.00 0.00040
299.50 0.00042
300.00 0.00043
300.50 0.00045
301.00 0.00047
301.50 0.00049
302.00 0.00053
302.50 0.00057
303.00 0.00062
303.50 0.00066
304.00 0.00071
304.50 0.00075
305.00 0.00079
305.50 0.00084
306.00 0.00094
306.50 0.00104
307.00 0.00115
307.50 0.00126
308.00 0.00137
308.50 0.00147
309.00 0.00161
309.50 0.00178
310.00 0.00198
310.50 0.00222
311.00 0.00247
311.50 0.00271
312.00 0.00295
312.50 0.00321
313.00 0.00364
313.50 0.00407
314.00 0.00450
314.50 0.00493
315.00 0.00537
315.50 0.00608
316.00 0.00680
316.50 0.00751
317.00 0.00823
317.50 0.00901
318.00 0.01022
318.50 0.01143
319.00 0.01264
319.50 0.01385
320.00 0.01533
320.50 0.01707
321.00 0.01891
321.50 0.02137
322.00 0.02383
322.50 0.02630
323.00 0.02879
323.50 0.03230
324.00 0.03580
324.50 0.03930
325.00 0.04470
325.50 0.05101
326.00 0.05732
326.50 0.06364
327.00 0.06997
327.50 0.07632
328.00 0.08351
328.50 0.09070
329.00 0.10155
329.50 0.11451
330.00 0.12864
330.50 0.14341
331.00 0.15820
331.50 0.17299
332.00 0.18939
332.50 0.20862
333.00 0.23282
333.50 0.25875
334.00 0.28404
334.50 0.30929
335.00 0.33450
335.50 0.37053
336.00 0.40616
336.50 0.43976
337.00 0.47323
337.50 0.50657
338.00 0.54798
338.50 0.58965
339.00 0.62528
339.50 0.65976
340.00 0.69401
340.50 0.72882
341.00 0.76444
341.50 0.80079
342.00 0.83724
342.50 0.87348
343.00 0.90869
343.50 0.93944
344.00 0.96892
344.50 0.99788
345.00 1.02662
345.50 1.05582
346.00 1.08413
346.50 1.11164
347.00 1.13899
347.50 1.16617
348.00 1.18931
348.50 1.20996
349.00 1.22972
349.50 1.24932
350.00 1.26877
350.50 1.28806
351.00 1.30452
351.50 1.32139
352.00 1.33816
352.50 1.35484
353.00 1.36834
353.50 1.37932
354.00 1.39059
354.50 1.40183
355.00 1.41205
355.50 1.41929
356.00 1.42639
356.50 1.43340
357.00 1.44033
357.50 1.44442
358.00 1.44803
358.50 1.45224
359.00 1.45434
359.50 1.45535
360.00 1.45678
