phi[deg] B[T]
0.00 1.42511
0.50 1.42416
1.00 1.42343
1.50 1.42318
2.00 1.42265
2.50 1.42139
3.00 1.41968
3.50 1.41757
4.00 1.41559
4.50 1.41376
5.00 1.41196
5.50 1.40731
6.00 1.40254
6.50 1.39871
7.00 1.39553
7.50 1.39044
8.00 1.38339
8.50 1.37633
9.00 1.36927
9.50 1.36192
10.00 1.35322
10.50 1.34445
11.00 1.33560
11.50 1.32668
12.00 1.31757
12.50 1.30330
13.00 1.28795
13.50 1.27250
14.00 1.25696
14.50 1.24106
15.00 1.22288
15.50 1.20453
16.00 1.18603
16.50 1.16705
17.00 1.14715
17.50 1.12316
18.00 1.09610
18.50 1.06887
19.00 1.04146
19.50 1.01498
20.00 0.98583
20.50 0.95645
21.00 0.92684
21.50 0.89525
22.00 0.86272
22.50 0.82567
23.00 0.78840
23.50 0.75091
24.00 0.71469
24.50 0.67719
25.00 0.64067
25.50 0.60618
26.00 0.57152
26.50 0.53666
27.00 0.50163
27.50 0.46397
28.00 0.42206
28.50 0.38299
29.00 0.35036
29.50 0.32567
30.00 0.30094
30.50 0.27616
31.00 0.25134
31.50 0.22648
32.00 0.20083
32.50 0.17670
33.00 0.16217
33.50 0.14869
34.00 0.13608
34.50 0.12347
35.00 0.11087
35.50 0.09828
36.00 0.08589
36.50 0.07811
37.00 0.07032
37.50 0.06328
38.00 0.05766
38.50 0.05204
39.00 0.04643
39.50 0.04119
40.00 0.03711
40.50 0.03351
41.00 0.03062
41.50 0.02772
42.00 0.02483
42.50 0.02195
43.00 0.01974
43.50 0.01802
44.00 0.01630
44.50 0.01459
45.00 0.01287
45.50 0.01182
46.00 0.01077
46.50 0.00972
47.00 0.00867
47.50 0.00763
48.00 0.00701
48.50 0.00642
49.00 0.00582
49.50 0.00523
50.00 0.00464
50.50 0.00416
51.00 0.00375
51.50 0.00340
52.00 0.00313
52.50 0.00287
53.00 0.00260
53.50 0.00233
54.00 0.00207
54.50 0.00183
55.00 0.00170
55.50 0.00159
56.00 0.00147
56.50 0.00136
57.00 0.00124
57.50 0.00112
58.00 0.00101
58.50 0.00091
59.00 0.00086
59.50 0.00081
60.00 0.00076
60.50 0.00070
61.00 0.00065
61.50 0.00060
62.00 0.00055
62.50 0.00051
63.00 0.00049
63.50 0.00047
64.00 0.00045
64.50 0.00043
65.00 0.00041
65.50 0.00039
66.00 0.00037
66.50 0.00036
67.00 0.00034
67.50 0.00033
68.00 0.00032
68.50 0.00031
69.00 0.00030
69.50 0.00029
70.00 0.00028
70.50 0.00027
71.00 0.00027
71.50 0.00026
72.00 0.00025
72.50 0.00024
73.00 0.00024
73.50 0.00023
74.00 0.00022
74.50 0.00021
75.00 0.00021
75.50 0.00020
76.00 0.00019
76.50 0.00019
77.00 0.00018
77.50 0.00017
78.00 0.00017
78.50 0.00016
79.00 0.00015
79.50 0.00015
80.00 0.00014
80.50 0.00013
81.00 0.00012
81.50 0.00012
82.00 0.00011
82.50 0.00011
83.00 0.00010
83.50 0.00009
84.00 0.00008
84.50 0.00008
85.00 0.00007
85.50 0.00007
86.00 0.00006
86.50 0.00005
87.00 0.00004
87.50 0.00004
88.00 0.00003
88.50 0.00003
89.00 0.00003
89.50 0.00002
90.00 0.00002
90.00 0.00002
90.50 0.00002
91.00 0.00003
91.50 0.00003
92.00 0.00003
92.50 0.00004
93.00 0.00004
93.50 0.00005
94.00 0.00006
94.50 0.00007
95.00 0.00007
95.50 0.00008
96.00 0.00008
96.50 0.00009
97.00 0.00010
97.50 0.00011
98.00 0.00011
98.50 0.00012
99.00 0.00012
99.50 0.00013
100.00 0.00014
100.50 0.00015
101.00 0.00015
101.50 0.00016
102.00 0.00017
102.50 0.00017
103.00 0.00018
103.50 0.00019
104.00 0.00019
104.50 0.00020
105.00 0.00021
105.50 0.00021
106.00 0.00022
106.50 0.00023
107.00 0.00024
107.50 0.00024
108.00 0.00025
108.50 0.00026
109.00 0.00027
109.50 0.00027
110.00 0.00028
110.50 0.00029
111.00 0.00030
111.50 0.00031
112.00 0.00032
112.50 0.00033
113.00 0.00034
113.50 0.00036
114.00 0.00037
114.50 0.00039
115.00 0.00041
115.50 0.00043
116.00 0.00045
116.50 0.00047
117.00 0.00049
117.50 0.00051
118.00 0.00055
118.50 0.00060
119.00 0.00065
119.50 0.00070
120.00 0.00076
120.50 0.00081
121.00 0.00086
121.50 0.00091
122.00 0.00101
122.50 0.00112
123.00 0.00124
123.50 0.00136
124.00 0.00147
124.50 0.00159
125.00 0.00170
125.50 0.00183
126.00 0.00207
126.50 0.00233
127.00 0.00260
127.50 0.00287
128.00 0.00313
128.50 0.00340
129.00 0.00375
129.50 0.00416
130.00 0.00464
130.50 0.00523
131.00 0.00582
131.50 0.00642
132.00 0.00701
132.50 0.00763
133.00 0.00867
133.50 0.00972
134.00 0.01077
134.50 0.01182
135.00 0.01287
135.50 0.01459
136.00 0.01630
136.50 0.01802
137.00 0.01974
137.50 0.02195
138.00 0.02483
138.50 0.02772
139.00 0.03062
139.50 0.03351
140.00 0.03711
140.50 0.04119
141.00 0.04643
141.50 0.05204
142.00 0.05766
142.50 0.06328
143.00 0.07032
143.50 0.07811
144.00 0.08589
144.50 0.09828
145.00 0.11087
145.50 0.12347
146.00 0.13608
146.50 0.14869
147.00 0.16217
147.50 0.17670
148.00 0.20083
148.50 0.22648
149.00 0.25134
149.50 0.27616
150.00 0.30094
150.50 0.32567
151.00 0.35036
151.50 0.38299
152.00 0.42206
152.50 0.46397
153.00 0.50163
153.50 0.53666
154.00 0.57152
154.50 0.60618
155.00 0.64067
155.50 0.67719
156.00 0.71469
156.50 0.75091
157.00 0.78840
157.50 0.82567
158.00 0.86272
158.50 0.89525
159.00 0.92684
159.50 0.95645
160.00 0.98583
160.50 1.01498
161.00 1.04146
161.50 1.06887
162.00 1.09610
162.50 1.12316
163.00 1.14715
163.50 1.16705
164.00 1.18603
164.50 1.20453
165.00 1.22288
165.50 1.24106
166.00 1.25696
166.50 1.27250
167.00 1.28795
167.50 1.30330
168.00 1.31757
168.50 1.32668
169.00 1.33560
169.50 1.34445
170.00 1.35322
170.50 1.36192
171.00 1.36927
171.50 1.37633
172.00 1.38339
172.50 1.39044
173.00 1.39553
173.50 1.39871
174.00 1.40254
174.50 1.40731
175.00 1.41196
175.50 1.41376
176.00 1.41559
176.50 1.41757
177.00 1.41968
177.50 1.42139
178.00 1.42265
178.50 1.42318
179.00 1.42343
179.50 1.42416
180.00 1.42511
180.00 1.42511
180.50 1.42416
181.00 1.42343
181.50 1.42318
182.00 1.42265
182.50 1.42139
183.00 1.41968
183.50 1.41757
184.00 1.41559
184.50 1.41376
185.00 1.41196
185.50 1.40731
186.00 1.40254
186.50 1.39871
187.00 1.39553
187.50 1.39044
188.00 1.38339
188.50 1.37633
189.00 1.36927
189.50 1.36192
190.00 1.35322
190.50 1.34445
191.00 1.33560
191.50 1.32668
192.00 1.31757
192.50 1.30330
193.00 1.28795
193.50 1.27250
194.00 1.25696
194.50 1.24106
195.00 1.22288
195.50 1.20453
196.00 1.18603
196.50 1.16705
197.00 1.14715
197.50 1.12316
198.00 1.09610
198.50 1.06887
199.00 1.04146
199.50 1.01498
200.00 0.98583
200.50 0.95645
201.00 0.92684
201.50 0.89525
202.00 0.86272
202.50 0.82567
203.00 0.78840
203.50 0.75091
204.00 0.71469
204.50 0.67719
205.00 0.64067
205.50 0.60618
206.00 0.57152
206.50 0.53666
207.00 0.50163
207.50 0.46397
208.00 0.42206
208.50 0.38299
209.00 0.35036
209.50 0.32567
210.00 0.30094
210.50 0.27616
211.00 0.25134
211.50 0.22648
212.00 0.20083
212.50 0.17670
213.00 0.16217
213.50 0.14869
214.00 0.13608
214.50 0.12347
215.00 0.11087
215.50 0.09828
216.00 0.08589
216.50 0.07811
217.00 0.07032
217.50 0.06328
218.00 0.05766
218.50 0.05204
219.00 0.04643
219.50 0.04119
220.00 0.03711
220.50 0.03351
221.00 0.03062
221.50 0.02772
222.00 0.02483
222.50 0.02195
223.00 0.01974
223.50 0.01802
224.00 0.01630
224.50 0.01459
225.00 0.01287
225.50 0.01182
226.00 0.01077
226.50 0.00972
227.00 0.00867
227.50 0.00763
228.00 0.00701
228.50 0.00642
229.00 0.00582
229.50 0.00523
230.00 0.00464
230.50 0.00416
231.00 0.00375
231.50 0.00340
232.00 0.00313
232.50 0.00287
233.00 0.00260
233.50 0.00233
234.00 0.00207
234.50 0.00183
235.00 0.00170
235.50 0.00159
236.00 0.00147
236.50 0.00136
237.00 0.00124
237.50 0.00112
238.00 0.00101
238.50 0.00091
239.00 0.00086
239.50 0.00081
240.00 0.00076
240.50 0.00070
241.00 0.00065
241.50 0.00060
242.00 0.00055
242.50 0.00051
243.00 0.00049
243.50 0.00047
244.00 0.00045
244.50 0.00043
245.00 0.00041
245.50 0.00039
246.00 0.00037
246.50 0.00036
247.00 0.00034
247.50 0.00033
248.00 0.00032
248.50 0.00031
249.00 0.00030
249.50 0.00029
250.00 0.00028
250.50 0.00027
251.00 0.00027
251.50 0.00026
252.00 0.00025
252.50 0.00024
253.00 0.00024
253.50 0.00023
254.00 0.00022
254.50 0.00021
255.00 0.00021
255.50 0.00020
256.00 0.00019
256.50 0.00019
257.00 0.00018
257.50 0.00017
258.00 0.00017
258.50 0.00016
259.00 0.00015
259.50 0.00015
260.00 0.00014
260.50 0.00013
261.00 0.00012
261.50 0.00012
262.00 0.00011
262.50 0.00011
263.00 0.00010
263.50 0.00009
264.00 0.00008
264.50 0.00008
265.00 0.00007
265.50 0.00007
266.00 0.00006
266.50 0.00005
267.00 0.00004
267.50 0.00004
268.00 0.00003
268.50 0.00003
269.00 0.00003
269.50 0.00002
270.00 0.00002
270.00 0.00002
270.50 0.00002
271.00 0.00003
271.50 0.00003
272.00 0.00003
272.50 0.00004
273.00 0.00004
273.50 0.00005
274.00 0.00006
274.50 0.00007
275.00 0.00007
275.50 0.00008
276.00 0.00008
276.50 0.00009
277.00 0.00010
277.50 0.00011
278.00 0.00011
278.50 0.00012
279.00 0.00012
279.50 0.00013
280.00 0.00014
280.50 0.00015
281.00 0.00015
281.50 0.00016
282.00 0.00017
282.50 0.00017
283.00 0.00018
283.50 0.00019
284.00 0.00019
284.50 0.00020
285.00 0.00021
285.50 0.00021
286.00 0.00022
286.50 0.00023
287.00 0.00024
287.50 0.00024
288.00 0.00025
288.50 0.00026
289.00 0.00027
289.50 0.00027
290.00 0.00028
290.50 0.00029
291.00 0.00030
291.50 0.00031
292.00 0.00032
292.50 0.00033
293.00 0.00034
293.50 0.00036
294.00 0.00037
294.50 0.00039
295.00 0.00041
295.50 0.00043
296.00 0.00045
296.50 0.00047
297.00 0.00049
297.50 0.00051
298.00 0.00055
298.50 0.00060
299.00 0.00065
299.50 0.00070
300.00 0.00076
300.50 0.00081
301.00 0.00086
301.50 0.00091
302.00 0.00101
302.50 0.00112
303.00 0.00124
303.50 0.00136
304.00 0.00147
304.50 0.00159
305.00 0.00170
305.50 0.00183
306.00 0.00207
306.50 0.00233
307.00 0.00260
307.50 0.00287
308.00 0.00313
308.50 0.00340
309.00 0.00375
309.50 0.00416
310.00 0.00464
310.50 0.00523
311.00 0.00582
311.50 0.00642
312.00 0.00701
312.50 0.00763
313.00 0.00867
313.50 0.00972
314.00 0.01077
314.50 0.01182
315.00 0.01287
315.50 0.01459
316.00 0.01630
316.50 0.01802
317.00 0.01974
317.50 0.02195
318.00 0.02483
318.50 0.02772
319.00 0.03062
319.50 0.03351
320.00 0.03711
320.50 0.04119
321.00 0.04643
321.50 0.05204
322.00 0.05766
322.50 0.06328
323.00 0.07032
323.50 0.07811
324.00 0.08589
324.50 0.09828
325.00 0.11087
325.50 0.12347
326.00 0.13608
326.50 0.14869
327.00 0.16217
327.50 0.17670
328.00 0.20083
328.50 0.22648
329.00 0.25134
329.50 0.27616
330.00 0.30094
330.50 0.32567
331.00 0.35036
331.50 0.38299
332.00 0.42206
332.50 0.46397
333.00 0.50163
333.50 0.53666
334.00 0.57152
334.50 0.60618
335.00 0.64067
335.50 0.67719
336.00 0.71469
336.50 0.75091
337.00 0.78840
337.50 0.82567
338.00 0.86272
338.50 0.89525
339.00 0.92684
339.50 0.95645
340.00 0.98583
340.50 1.01498
341.00 1.04146
341.50 1.06887
342.00 1.09610
342.50 1.12316
343.00 1.14715
343.50 1.16705
344.00 1.18603
344.50 1.20453
345.00 1.22288
345.50 1.24106
346.00 1.25696
346.50 1.27250
347.00 1.28795
347.50 1.30330
348.00 1.31757
348.50 1.32668
349.00 1.33560
349.50 1.34445
350.00 1.35322
350.50 1.36192
351.00 1.36927
351.50 1.37633
352.00 1.38339
352.50 1.39044
353.00 1.39553
353.50 1.39871
354.00 1.40254
354.50 1.40731
355.00 1.41196
355.50 1.41376
356.00 1.41559
356.50 1.41757
357.00 1.41968
357.50 1.42139
358.00 1.42265
358.50 1.42318
359.00 1.42343
359.50 1.42416
360.00 1.42511
