phi[deg] B[T]
0.00 1.38554
0.50 1.38468
1.00 1.38391
1.50 1.38323
2.00 1.38224
2.50 1.38142
3.00 1.38072
3.50 1.37969
4.00 1.37846
4.50 1.37810
5.00 1.37793
5.50 1.37806
6.00 1.37854
6.50 1.37914
7.00 1.37966
7.50 1.38027
8.00 1.38155
8.50 1.38363
9.00 1.38581
9.50 1.38716
10.00 1.38760
10.50 1.38813
11.00 1.38924
11.50 1.39044
12.00 1.39143
12.50 1.38998
13.00 1.38861
13.50 1.38722
14.00 1.38520
14.50 1.38312
15.00 1.38062
15.50 1.37824
16.00 1.37613
16.50 1.37412
17.00 1.37229
17.50 1.37069
18.00 1.36919
18.50 1.36778
19.00 1.36603
19.50 1.36295
20.00 1.35910
20.50 1.35756
21.00 1.35606
21.50 1.35461
22.00 1.35036
22.50 1.34279
23.00 1.33525
23.50 1.32873
24.00 1.32369
24.50 1.31114
25.00 1.29719
25.50 1.28498
26.00 1.27281
26.50 1.26067
27.00 1.24651
27.50 1.23133
28.00 1.21625
28.50 1.20205
29.00 1.18791
29.50 1.17415
30.00 1.16057
30.50 1.14705
31.00 1.13342
31.50 1.11930
32.00 1.10393
32.50 1.09060
33.00 1.07764
33.50 1.06471
34.00 1.04993
34.50 1.03369
35.00 1.01795
35.50 1.00296
36.00 0.98648
36.50 0.96801
37.00 0.94955
37.50 0.93080
38.00 0.91208
38.50 0.89339
39.00 0.87473
39.50 0.85568
40.00 0.83675
40.50 0.81818
41.00 0.79971
41.50 0.78132
42.00 0.76324
42.50 0.74546
43.00 0.72782
43.50 0.71067
44.00 0.69367
44.50 0.67739
45.00 0.66112
45.50 0.64594
46.00 0.63097
46.50 0.61761
47.00 0.60414
47.50 0.59265
48.00 0.58111
48.50 0.57187
49.00 0.56327
49.50 0.55343
50.00 0.54411
50.50 0.53884
51.00 0.53412
51.50 0.52511
52.00 0.51430
52.50 0.50344
53.00 0.49570
53.50 0.48883
54.00 0.47996
54.50 0.46500
55.00 0.44970
55.50 0.43426
56.00 0.41865
56.50 0.40281
57.00 0.38682
57.50 0.36610
58.00 0.34415
58.50 0.32202
59.00 0.29597
59.50 0.26760
60.00 0.23924
60.50 0.21900
61.00 0.19867
61.50 0.17824
62.00 0.15353
62.50 0.12878
63.00 0.11262
63.50 0.09658
64.00 0.08444
64.50 0.07237
65.00 0.06210
65.50 0.05445
66.00 0.04679
66.50 0.03911
67.00 0.03288
67.50 0.02918
68.00 0.02547
68.50 0.02170
69.00 0.01793
69.50 0.01579
70.00 0.01384
70.50 0.01184
71.00 0.00984
71.50 0.00848
72.00 0.00742
72.50 0.00637
73.00 0.00531
73.50 0.00458
74.00 0.00401
74.50 0.00348
75.00 0.00295
75.50 0.00249
76.00 0.00220
76.50 0.00190
77.00 0.00165
77.50 0.00143
78.00 0.00122
78.50 0.00109
79.00 0.00095
79.50 0.00082
80.00 0.00073
80.50 0.00064
81.00 0.00058
81.50 0.00052
82.00 0.00046
82.50 0.00041
83.00 0.00037
83.50 0.00034
84.00 0.00030
84.50 0.00027
85.00 0.00024
85.50 0.00021
86.00 0.00019
86.50 0.00016
87.00 0.00014
87.50 0.00011
88.00 0.00009
88.50 0.00007
89.00 0.00006
89.50 0.00005
90.00 0.00004
90.00 0.00004
90.50 0.00005
91.00 0.00006
91.50 0.00007
92.00 0.00009
92.50 0.00011
93.00 0.00014
93.50 0.00016
94.00 0.00019
94.50 0.00021
95.00 0.00024
95.50 0.00027
96.00 0.00030
96.50 0.00034
97.00 0.00037
97.50 0.00041
98.00 0.00046
98.50 0.00052
99.00 0.00058
99.50 0.00064
100.00 0.00073
100.50 0.00082
101.00 0.00095
101.50 0.00109
102.00 0.00122
102.50 0.00143
103.00 0.00165
103.50 0.00190
104.00 0.00220
104.50 0.00249
105.00 0.00295
105.50 0.00348
106.00 0.00401
106.50 0.00458
107.00 0.00531
107.50 0.00637
108.00 0.00742
108.50 0.00848
109.00 0.00984
109.50 0.01184
110.00 0.01384
110.50 0.01579
111.00 0.01793
111.50 0.02170
112.00 0.02547
112.50 0.02918
113.00 0.03288
113.50 0.03911
114.00 0.04679
114.50 0.05445
115.00 0.06210
115.50 0.07237
116.00 0.08444
116.50 0.09658
117.00 0.11262
117.50 0.12878
118.00 0.15353
118.50 0.17824
119.00 0.19867
119.50 0.21900
120.00 0.23924
120.50 0.26760
121.00 0.29597
121.50 0.32202
122.00 0.34415
122.50 0.36610
123.00 0.38682
123.50 0.40281
124.00 0.41865
124.50 0.43426
125.00 0.44970
125.50 0.46500
126.00 0.47996
126.50 0.48883
127.00 0.49570
127.50 0.50344
128.00 0.51430
128.50 0.52511
129.00 0.53412
129.50 0.53884
130.00 0.54411
130.50 0.55343
131.00 0.56327
131.50 0.57187
132.00 0.58111
132.50 0.59265
133.00 0.60414
133.50 0.61761
134.00 0.63097
134.50 0.64594
135.00 0.66112
135.50 0.67739
136.00 0.69367
136.50 0.71067
137.00 0.72782
137.50 0.74546
138.00 0.76324
138.50 0.78132
139.00 0.79971
139.50 0.81818
140.00 0.83675
140.50 0.85568
141.00 0.87473
141.50 0.89339
142.00 0.91208
142.50 0.93080
143.00 0.94955
143.50 0.96801
144.00 0.98648
144.50 1.00296
145.00 1.01795
145.50 1.03369
146.00 1.04993
146.50 1.06471
147.00 1.07764
147.50 1.09060
148.00 1.10393
148.50 1.11930
149.00 1.13342
149.50 1.14705
150.00 1.16057
150.50 1.17415
151.00 1.18791
151.50 1.20205
152.00 1.21625
152.50 1.23133
153.00 1.24651
153.50 1.26067
154.00 1.27281
154.50 1.28498
155.00 1.29719
155.50 1.31114
156.00 1.32369
156.50 1.32873
157.00 1.33525
157.50 1.34279
158.00 1.35036
158.50 1.35461
159.00 1.35606
159.50 1.35756
160.00 1.35910
160.50 1.36295
161.00 1.36603
161.50 1.36778
162.00 1.36919
162.50 1.37069
163.00 1.37229
163.50 1.37412
164.00 1.37613
164.50 1.37824
165.00 1.38062
165.50 1.38312
166.00 1.38520
166.50 1.38722
167.00 1.38861
167.50 1.38998
168.00 1.39143
168.50 1.39044
169.00 1.38924
169.50 1.38813
170.00 1.38760
170.50 1.38716
171.00 1.38581
171.50 1.38363
172.00 1.38155
172.50 1.38027
173.00 1.37966
173.50 1.37914
174.00 1.37854
174.50 1.37806
175.00 1.37793
175.50 1.37810
176.00 1.37846
176.50 1.37969
177.00 1.38072
177.50 1.38142
178.00 1.38224
178.50 1.38323
179.00 1.38391
179.50 1.38468
180.00 1.38554
180.00 1.38554
180.50 1.38468
181.00 1.38391
181.50 1.38323
182.00 1.38224
182.50 1.38142
183.00 1.38072
183.50 1.37969
184.00 1.37846
184.50 1.37810
185.00 1.37793
185.50 1.37806
186.00 1.37854
186.50 1.37914
187.00 1.37966
187.50 1.38027
188.00 1.38155
188.50 1.38363
189.00 1.38581
189.50 1.38716
190.00 1.38760
190.50 1.38813
191.00 1.38924
191.50 1.39044
192.00 1.39143
192.50 1.38998
193.00 1.38861
193.50 1.38722
194.00 1.38520
194.50 1.38312
195.00 1.38062
195.50 1.37824
196.00 1.37613
196.50 1.37412
197.00 1.37229
197.50 1.37069
198.00 1.36919
198.50 1.36778
199.00 1.36603
199.50 1.36295
200.00 1.35910
200.50 1.35756
201.00 1.35606
201.50 1.35461
202.00 1.35036
202.50 1.34279
203.00 1.33525
203.50 1.32873
204.00 1.32369
204.50 1.31114
205.00 1.29719
205.50 1.28498
206.00 1.27281
206.50 1.26067
207.00 1.24651
207.50 1.23133
208.00 1.21625
208.50 1.20205
209.00 1.18791
209.50 1.17415
210.00 1.16057
210.50 1.14705
211.00 1.13342
211.50 1.11930
212.00 1.10393
212.50 1.09060
213.00 1.07764
213.50 1.06471
214.00 1.04993
214.50 1.03369
215.00 1.01795
215.50 1.00296
216.00 0.98648
216.50 0.96801
217.00 0.94955
217.50 0.93080
218.00 0.91208
218.50 0.89339
219.00 0.87473
219.50 0.85568
220.00 0.83675
220.50 0.81818
221.00 0.79971
221.50 0.78132
222.00 0.76324
222.50 0.74546
223.00 0.72782
223.50 0.71067
224.00 0.69367
224.50 0.67739
225.00 0.66112
225.50 0.64594
226.00 0.63097
226.50 0.61761
227.00 0.60414
227.50 0.59265
228.00 0.58111
228.50 0.57187
229.00 0.56327
229.50 0.55343
230.00 0.54411
230.50 0.53884
231.00 0.53412
231.50 0.52511
232.00 0.51430
232.50 0.50344
233.00 0.49570
233.50 0.48883
234.00 0.47996
234.50 0.46500
235.00 0.44970
235.50 0.43426
236.00 0.41865
236.50 0.40281
237.00 0.38682
237.50 0.36610
238.00 0.34415
238.50 0.32202
239.00 0.29597
239.50 0.26760
240.00 0.23924
240.50 0.21900
241.00 0.19867
241.50 0.17824
242.00 0.15353
242.50 0.12878
243.00 0.11262
243.50 0.09658
244.00 0.08444
244.50 0.07237
245.00 0.06210
245.50 0.05445
246.00 0.04679
246.50 0.03911
247.00 0.03288
247.50 0.02918
248.00 0.02547
248.50 0.02170
249.00 0.01793
249.50 0.01579
250.00 0.01384
250.50 0.01184
251.00 0.00984
251.50 0.00848
252.00 0.00742
252.50 0.00637
253.00 0.00531
253.50 0.00458
254.00 0.00401
254.50 0.00348
255.00 0.00295
255.50 0.00249
256.00 0.00220
256.50 0.00190
257.00 0.00165
257.50 0.00143
258.00 0.00122
258.50 0.00109
259.00 0.00095
259.50 0.00082
260.00 0.00073
260.50 0.00064
261.00 0.00058
261.50 0.00052
262.00 0.00046
262.50 0.00041
263.00 0.00037
263.50 0.00034
264.00 0.00030
264.50 0.00027
265.00 0.00024
265.50 0.00021
266.00 0.00019
266.50 0.00016
267.00 0.00014
267.50 0.00011
268.00 0.00009
268.50 0.00007
269.00 0.00006
269.50 0.00005
270.00 0.00004
270.00 0.00004
270.50 0.00005
271.00 0.00006
271.50 0.00007
272.00 0.00009
272.50 0.00011
273.00 0.00014
273.50 0.00016
274.00 0.00019
274.50 0.00021
275.00 0.00024
275.50 0.00027
276.00 0.00030
276.50 0.00034
277.00 0.00037
277.50 0.00041
278.00 0.00046
278.50 0.00052
279.00 0.00058
279.50 0.00064
280.00 0.00073
280.50 0.00082
281.00 0.00095
281.50 0.00109
282.00 0.00122
282.50 0.00143
283.00 0.00165
283.50 0.00190
284.00 0.00220
284.50 0.00249
285.00 0.00295
285.50 0.00348
286.00 0.00401
286.50 0.00458
287.00 0.00531
287.50 0.00637
288.00 0.00742
288.50 0.00848
289.00 0.00984
289.50 0.01184
290.00 0.01384
290.50 0.01579
291.00 0.01793
291.50 0.02170
292.00 0.02547
292.50 0.02918
293.00 0.03288
293.50 0.03911
294.00 0.04679
294.50 0.05445
295.00 0.06210
295.50 0.07237
296.00 0.08444
296.50 0.09658
297.00 0.11262
297.50 0.12878
298.00 0.15353
298.50 0.17824
299.00 0.19867
299.50 0.21900
300.00 0.23924
300.50 0.26760
301.00 0.29597
301.50 0.32202
302.00 0.34415
302.50 0.36610
303.00 0.38682
303.50 0.40281
304.00 0.41865
304.50 0.43426
305.00 0.44970
305.50 0.46500
306.00 0.47996
306.50 0.48883
307.00 0.49570
307.50 0.50344
308.00 0.51430
308.50 0.52511
309.00 0.53412
309.50 0.53884
310.00 0.54411
310.50 0.55343
311.00 0.56327
311.50 0.57187
312.00 0.58111
312.50 0.59265
313.00 0.60414
313.50 0.61761
314.00 0.63097
314.50 0.64594
315.00 0.66112
315.50 0.67739
316.00 0.69367
316.50 0.71067
317.00 0.72782
317.50 0.74546
318.00 0.76324
318.50 0.78132
319.00 0.79971
319.50 0.81818
320.00 0.83675
320.50 0.85568
321.00 0.87473
321.50 0.89339
322.00 0.91208
322.50 0.93080
323.00 0.94955
323.50 0.96801
324.00 0.98648
324.50 1.00296
325.00 1.01795
325.50 1.03369
326.00 1.04993
326.50 1.06471
327.00 1.07764
327.50 1.09060
328.00 1.10393
328.50 1.11930
329.00 1.13342
329.50 1.14705
330.00 1.16057
330.50 1.17415
331.00 1.18791
331.50 1.20205
332.00 1.21625
332.50 1.23133
333.00 1.24651
333.50 1.26067
334.00 1.27281
334.50 1.28498
335.00 1.29719
335.50 1.31114
336.00 1.32369
336.50 1.32873
337.00 1.33525
337.50 1.34279
338.00 1.35036
338.50 1.35461
339.00 1.35606
339.50 1.35756
340.00 1.35910
340.50 1.36295
341.00 1.36603
341.50 1.36778
342.00 1.36919
342.50 1.37069
343.00 1.37229
343.50 1.37412
344.00 1.37613
344.50 1.37824
345.00 1.38062
345.50 1.38312
346.00 1.38520
346.50 1.38722
347.00 1.38861
347.50 1.38998
348.00 1.39143
348.50 1.39044
349.00 1.38924
349.50 1.38813
350.00 1.38760
350.50 1.38716
351.00 1.38581
351.50 1.38363
352.00 1.38155
352.50 1.38027
353.00 1.37966
353.50 1.37914
354.00 1.37854
354.50 1.37806
355.00 1.37793
355.50 1.37810
356.00 1.37846
356.50 1.37969
357.00 1.38072
357.50 1.38142
358.00 1.38224
358.50 1.38323
359.00 1.38391
359.50 1.38468
360.00 1.38554
