phi[deg] B[T]
0.00 1.41229
0.50 1.41076
1.00 1.40976
1.50 1.40760
2.00 1.40312
2.50 1.39897
3.00 1.39457
3.50 1.38743
4.00 1.38008
4.50 1.37260
5.00 1.36410
5.50 1.35456
6.00 1.34249
6.50 1.33033
7.00 1.31799
7.50 1.30545
8.00 1.28772
8.50 1.26988
9.00 1.25193
9.50 1.23432
10.00 1.21447
10.50 1.19446
11.00 1.17428
11.50 1.15350
12.00 1.13193
12.50 1.10577
13.00 1.07767
13.50 1.04940
14.00 1.02096
14.50 0.99270
15.00 0.96298
15.50 0.93302
16.00 0.90285
16.50 0.87126
17.00 0.83856
17.50 0.80170
18.00 0.76457
18.50 0.72722
19.00 0.68966
19.50 0.65458
20.00 0.62034
20.50 0.58589
21.00 0.55123
21.50 0.51400
22.00 0.47125
22.50 0.43607
23.00 0.40425
23.50 0.37231
24.00 0.34025
24.50 0.30617
25.00 0.28202
25.50 0.25942
26.00 0.23679
26.50 0.21412
27.00 0.19049
27.50 0.16962
28.00 0.15585
28.50 0.14427
29.00 0.13269
29.50 0.12113
30.00 0.10957
30.50 0.09803
31.00 0.08650
31.50 0.07536
32.00 0.06589
32.50 0.05955
33.00 0.05486
33.50 0.05066
34.00 0.04647
34.50 0.04228
35.00 0.03810
35.50 0.03392
36.00 0.02976
36.50 0.02579
37.00 0.02314
37.50 0.02087
38.00 0.01924
38.50 0.01762
39.00 0.01587
39.50 0.01413
40.00 0.01238
40.50 0.01117
41.00 0.01022
41.50 0.00927
42.00 0.00833
42.50 0.00739
43.00 0.00670
43.50 0.00611
44.00 0.00553
44.50 0.00495
45.00 0.00436
45.50 0.00401
46.00 0.00366
46.50 0.00331
47.00 0.00296
47.50 0.00261
48.00 0.00241
48.50 0.00221
49.00 0.00201
49.50 0.00182
50.00 0.00162
50.50 0.00146
51.00 0.00133
51.50 0.00122
52.00 0.00113
52.50 0.00104
53.00 0.00095
53.50 0.00087
54.00 0.00078
54.50 0.00071
55.00 0.00067
55.50 0.00063
56.00 0.00060
56.50 0.00057
57.00 0.00053
57.50 0.00050
58.00 0.00046
58.50 0.00043
59.00 0.00042
59.50 0.00040
60.00 0.00039
60.50 0.00037
61.00 0.00035
61.50 0.00034
62.00 0.00032
62.50 0.00031
63.00 0.00030
63.50 0.00030
64.00 0.00029
64.50 0.00028
65.00 0.00027
65.50 0.00026
66.00 0.00026
66.50 0.00025
67.00 0.00024
67.50 0.00024
68.00 0.00023
68.50 0.00023
69.00 0.00022
69.50 0.00022
70.00 0.00021
70.50 0.00020
71.00 0.00020
71.50 0.00019
72.00 0.00019
72.50 0.00018
73.00 0.00018
73.50 0.00017
74.00 0.00017
74.50 0.00016
75.00 0.00016
75.50 0.00015
76.00 0.00015
76.50 0.00014
77.00 0.00014
77.50 0.00013
78.00 0.00013
78.50 0.00012
79.00 0.00012
79.50 0.00011
80.00 0.00011
80.50 0.00010
81.00 0.00010
81.50 0.00009
82.00 0.00009
82.50 0.00008
83.00 0.00008
83.50 0.00007
84.00 0.00006
84.50 0.00006
85.00 0.00006
85.50 0.00005
86.00 0.00005
86.50 0.00004
87.00 0.00003
87.50 0.00003
88.00 0.00003
88.50 0.00002
89.00 0.00002
89.50 0.00002
90.00 0.00002
90.00 0.00002
90.50 0.00002
91.00 0.00002
91.50 0.00002
92.00 0.00003
92.50 0.00003
93.00 0.00003
93.50 0.00004
94.00 0.00005
94.50 0.00005
95.00 0.00006
95.50 0.00006
96.00 0.00006
96.50 0.00007
97.00 0.00008
97.50 0.00008
98.00 0.00009
98.50 0.00009
99.00 0.00010
99.50 0.00010
100.00 0.00011
100.50 0.00011
101.00 0.00012
101.50 0.00012
102.00 0.00013
102.50 0.00013
103.00 0.00014
103.50 0.00014
104.00 0.00015
104.50 0.00015
105.00 0.00016
105.50 0.00016
106.00 0.00017
106.50 0.00017
107.00 0.00018
107.50 0.00018
108.00 0.00019
108.50 0.00019
109.00 0.00020
109.50 0.00020
110.00 0.00021
110.50 0.00022
111.00 0.00022
111.50 0.00023
112.00 0.00023
112.50 0.00024
113.00 0.00024
113.50 0.00025
114.00 0.00026
114.50 0.00026
115.00 0.00027
115.50 0.00028
116.00 0.00029
116.50 0.00030
117.00 0.00030
117.50 0.00031
118.00 0.00032
118.50 0.00034
119.00 0.00035
119.50 0.00037
120.00 0.00039
120.50 0.00040
121.00 0.00042
121.50 0.00043
122.00 0.00046
122.50 0.00050
123.00 0.00053
123.50 0.00057
124.00 0.00060
124.50 0.00063
125.00 0.00067
125.50 0.00071
126.00 0.00078
126.50 0.00087
127.00 0.00095
127.50 0.00104
128.00 0.00113
128.50 0.00122
129.00 0.00133
129.50 0.00146
130.00 0.00162
130.50 0.00182
131.00 0.00201
131.50 0.00221
132.00 0.00241
132.50 0.00261
133.00 0.00296
133.50 0.00331
134.00 0.00366
134.50 0.00401
135.00 0.00436
135.50 0.00495
136.00 0.00553
136.50 0.00611
137.00 0.00670
137.50 0.00739
138.00 0.00833
138.50 0.00927
139.00 0.01022
139.50 0.01117
140.00 0.01238
140.50 0.01413
141.00 0.01587
141.50 0.01762
142.00 0.01924
142.50 0.02087
143.00 0.02314
143.50 0.02579
144.00 0.02976
144.50 0.03392
145.00 0.03810
145.50 0.04228
146.00 0.04647
146.50 0.05066
147.00 0.05486
147.50 0.05955
148.00 0.06589
148.50 0.07536
149.00 0.08650
149.50 0.09803
150.00 0.10957
150.50 0.12113
151.00 0.13269
151.50 0.14427
152.00 0.15585
152.50 0.16962
153.00 0.19049
153.50 0.21412
154.00 0.23679
154.50 0.25942
155.00 0.28202
155.50 0.30617
156.00 0.34025
156.50 0.37231
157.00 0.40425
157.50 0.43607
158.00 0.47125
158.50 0.51400
159.00 0.55123
159.50 0.58589
160.00 0.62034
160.50 0.65458
161.00 0.68966
161.50 0.72722
162.00 0.76457
162.50 0.80170
163.00 0.83856
163.50 0.87126
164.00 0.90285
164.50 0.93302
165.00 0.96298
165.50 0.99270
166.00 1.02096
166.50 1.04940
167.00 1.07767
167.50 1.10577
168.00 1.13193
168.50 1.15350
169.00 1.17428
169.50 1.19446
170.00 1.21447
170.50 1.23432
171.00 1.25193
171.50 1.26988
172.00 1.28772
172.50 1.30545
173.00 1.31799
173.50 1.33033
174.00 1.34249
174.50 1.35456
175.00 1.36410
175.50 1.37260
176.00 1.38008
176.50 1.38743
177.00 1.39457
177.50 1.39897
178.00 1.40312
178.50 1.40760
179.00 1.40976
179.50 1.41076
180.00 1.41229
180.00 1.41229
180.50 1.41076
181.00 1.40976
181.50 1.40760
182.00 1.40312
182.50 1.39897
183.00 1.39457
183.50 1.38743
184.00 1.38008
184.50 1.37260
185.00 1.36410
185.50 1.35456
186.00 1.34249
186.50 1.33033
187.00 1.31799
187.50 1.30545
188.00 1.28772
188.50 1.26988
189.00 1.25193
189.50 1.23432
190.00 1.21447
190.50 1.19446
191.00 1.17428
191.50 1.15350
192.00 1.13193
192.50 1.10577
193.00 1.07767
193.50 1.04940
194.00 1.02096
194.50 0.99270
195.00 0.96298
195.50 0.93302
196.00 0.90285
196.50 0.87126
197.00 0.83856
197.50 0.80170
198.00 0.76457
198.50 0.72722
199.00 0.68966
199.50 0.65458
200.00 0.62034
200.50 0.58589
201.00 0.55123
201.50 0.51400
202.00 0.47125
202.50 0.43607
203.00 0.40425
203.50 0.37231
204.00 0.34025
204.50 0.30617
205.00 0.28202
205.50 0.25942
206.00 0.23679
206.50 0.21412
207.00 0.19049
207.50 0.16962
208.00 0.15585
208.50 0.14427
209.00 0.13269
209.50 0.12113
210.00 0.10957
210.50 0.09803
211.00 0.08650
211.50 0.07536
212.00 0.06589
212.50 0.05955
213.00 0.05486
213.50 0.05066
214.00 0.04647
214.50 0.04228
215.00 0.03810
215.50 0.03392
216.00 0.02976
216.50 0.02579
217.00 0.02314
217.50 0.02087
218.00 0.01924
218.50 0.01762
219.00 0.01587
219.50 0.01413
220.00 0.01238
220.50 0.01117
221.00 0.01022
221.50 0.00927
222.00 0.00833
222.50 0.00739
223.00 0.00670
223.50 0.00611
224.00 0.00553
224.50 0.00495
225.00 0.00436
225.50 0.00401
226.00 0.00366
226.50 0.00331
227.00 0.00296
227.50 0.00261
228.00 0.00241
228.50 0.00221
229.00 0.00201
229.50 0.00182
230.00 0.00162
230.50 0.00146
231.00 0.00133
231.50 0.00122
232.00 0.00113
232.50 0.00104
233.00 0.00095
233.50 0.00087
234.00 0.00078
234.50 0.00071
235.00 0.00067
235.50 0.00063
236.00 0.00060
236.50 0.00057
237.00 0.00053
237.50 0.00050
238.00 0.00046
238.50 0.00043
239.00 0.00042
239.50 0.00040
240.00 0.00039
240.50 0.00037
241.00 0.00035
241.50 0.00034
242.00 0.00032
242.50 0.00031
243.00 0.00030
243.50 0.00030
244.00 0.00029
244.50 0.00028
245.00 0.00027
245.50 0.00026
246.00 0.00026
246.50 0.00025
247.00 0.00024
247.50 0.00024
248.00 0.00023
248.50 0.00023
249.00 0.00022
249.50 0.00022
250.00 0.00021
250.50 0.00020
251.00 0.00020
251.50 0.00019
252.00 0.00019
252.50 0.00018
253.00 0.00018
253.50 0.00017
254.00 0.00017
254.50 0.00016
255.00 0.00016
255.50 0.00015
256.00 0.00015
256.50 0.00014
257.00 0.00014
257.50 0.00013
258.00 0.00013
258.50 0.00012
259.00 0.00012
259.50 0.00011
260.00 0.00011
260.50 0.00010
261.00 0.00010
261.50 0.00009
262.00 0.00009
262.50 0.00008
263.00 0.00008
263.50 0.00007
264.00 0.00006
264.50 0.00006
265.00 0.00006
265.50 0.00005
266.00 0.00005
266.50 0.00004
267.00 0.00003
267.50 0.00003
268.00 0.00003
268.50 0.00002
269.00 0.00002
269.50 0.00002
270.00 0.00002
270.00 0.00002
270.50 0.00002
271.00 0.00002
271.50 0.00002
272.00 0.00003
272.50 0.00003
273.00 0.00003
273.50 0.00004
274.00 0.00005
274.50 0.00005
275.00 0.00006
275.50 0.00006
276.00 0.00006
276.50 0.00007
277.00 0.00008
277.50 0.00008
278.00 0.00009
278.50 0.00009
279.00 0.00010
279.50 0.00010
280.00 0.00011
280.50 0.00011
281.00 0.00012
281.50 0.00012
282.00 0.00013
282.50 0.00013
283.00 0.00014
283.50 0.00014
284.00 0.00015
284.50 0.00015
285.00 0.00016
285.50 0.00016
286.00 0.00017
286.50 0.00017
287.00 0.00018
287.50 0.00018
288.00 0.00019
288.50 0.00019
289.00 0.00020
289.50 0.00020
290.00 0.00021
290.50 0.00022
291.00 0.00022
291.50 0.00023
292.00 0.00023
292.50 0.00024
293.00 0.00024
293.50 0.00025
294.00 0.00026
294.50 0.00026
295.00 0.00027
295.50 0.00028
296.00 0.00029
296.50 0.00030
297.00 0.00030
297.50 0.00031
298.00 0.00032
298.50 0.00034
299.00 0.00035
299.50 0.00037
300.00 0.00039
300.50 0.00040
301.00 0.00042
301.50 0.00043
302.00 0.00046
302.50 0.00050
303.00 0.00053
303.50 0.00057
304.00 0.00060
304.50 0.00063
305.00 0.00067
305.50 0.00071
306.00 0.00078
306.50 0.00087
307.00 0.00095
307.50 0.00104
308.00 0.00113
308.50 0.00122
309.00 0.00133
309.50 0.00146
310.00 0.00162
310.50 0.00182
311.00 0.00201
311.50 0.00221
312.00 0.00241
312.50 0.00261
313.00 0.00296
313.50 0.00331
314.00 0.00366
314.50 0.00401
315.00 0.00436
315.50 0.00495
316.00 0.00553
316.50 0.00611
317.00 0.00670
317.50 0.00739
318.00 0.00833
318.50 0.00927
319.00 0.01022
319.50 0.01117
320.00 0.01238
320.50 0.01413
321.00 0.01587
321.50 0.01762
322.00 0.01924
322.50 0.02087
323.00 0.02314
323.50 0.02579
324.00 0.02976
324.50 0.03392
325.00 0.03810
325.50 0.04228
326.00 0.04647
326.50 0.05066
327.00 0.05486
327.50 0.05955
328.00 0.06589
328.50 0.07536
329.00 0.08650
329.50 0.09803
330.00 0.10957
330.50 0.12113
331.00 0.13269
331.50 0.14427
332.00 0.15585
332.50 0.16962
333.00 0.19049
333.50 0.21412
334.00 0.23679
334.50 0.25942
335.00 0.28202
335.50 0.30617
336.00 0.34025
336.50 0.37231
337.00 0.40425
337.50 0.43607
338.00 0.47125
338.50 0.51400
339.00 0.55123
339.50 0.58589
340.00 0.62034
340.50 0.65458
341.00 0.68966
341.50 0.72722
342.00 0.76457
342.50 0.80170
343.00 0.83856
343.50 0.87126
344.00 0.90285
344.50 0.93302
345.00 0.96298
345.50 0.99270
346.00 1.02096
346.50 1.04940
347.00 1.07767
347.50 1.10577
348.00 1.13193
348.50 1.15350
349.00 1.17428
349.50 1.19446
350.00 1.21447
350.50 1.23432
351.00 1.25193
351.50 1.26988
352.00 1.28772
352.50 1.30545
353.00 1.31799
353.50 1.33033
354.00 1.34249
354.50 1.35456
355.00 1.36410
355.50 1.37260
356.00 1.38008
356.50 1.38743
357.00 1.39457
357.50 1.39897
358.00 1.40312
358.50 1.40760
359.00 1.40976
359.50 1.41076
360.00 1.41229
