phi[deg] B[T]
0.00 1.49880
0.50 1.49791
1.00 1.49712
1.50 1.49644
2.00 1.49580
2.50 1.49484
3.00 1.49399
3.50 1.49327
4.00 1.49272
4.50 1.49246
5.00 1.49232
5.50 1.49245
6.00 1.49275
6.50 1.49317
7.00 1.49362
7.50 1.49418
8.00 1.49486
8.50 1.49565
9.00 1.49762
9.50 1.49987
10.00 1.50163
10.50 1.50207
11.00 1.50226
11.50 1.50254
12.00 1.50290
12.50 1.50169
13.00 1.49995
13.50 1.49827
14.00 1.49627
14.50 1.49436
15.00 1.49254
15.50 1.49033
16.00 1.48810
16.50 1.48588
17.00 1.48293
17.50 1.48008
18.00 1.47731
18.50 1.47507
19.00 1.47412
19.50 1.47313
20.00 1.47189
20.50 1.46728
21.00 1.46270
21.50 1.45817
22.00 1.45350
22.50 1.44767
23.00 1.44188
23.50 1.43369
24.00 1.42288
24.50 1.41208
25.00 1.40124
25.50 1.38585
26.00 1.37050
26.50 1.35524
27.00 1.34009
27.50 1.32499
28.00 1.30993
28.50 1.29447
29.00 1.27864
29.50 1.26435
30.00 1.24951
30.50 1.23389
31.00 1.21831
31.50 1.20278
32.00 1.18769
32.50 1.17418
33.00 1.16071
33.50 1.14374
34.00 1.12608
34.50 1.10844
35.00 1.09083
35.50 1.07451
36.00 1.05812
36.50 1.03730
37.00 1.01656
37.50 0.99706
38.00 0.97743
38.50 0.95716
39.00 0.93693
39.50 0.91690
40.00 0.89693
40.50 0.87728
41.00 0.85837
41.50 0.83953
42.00 0.82134
42.50 0.80321
43.00 0.78558
43.50 0.76846
44.00 0.75177
44.50 0.73562
45.00 0.71956
45.50 0.70480
46.00 0.69001
46.50 0.67641
47.00 0.66335
47.50 0.65034
48.00 0.63854
48.50 0.62934
49.00 0.61897
49.50 0.60713
50.00 0.59531
50.50 0.58613
51.00 0.57902
51.50 0.56928
52.00 0.55604
52.50 0.54273
53.00 0.52936
53.50 0.51818
54.00 0.50911
54.50 0.49464
55.00 0.47631
55.50 0.45780
56.00 0.43912
56.50 0.42027
57.00 0.40279
57.50 0.38540
58.00 0.35640
58.50 0.33200
59.00 0.30913
59.50 0.28613
60.00 0.26264
60.50 0.23691
61.00 0.21105
61.50 0.18508
62.00 0.16161
62.50 0.14222
63.00 0.12802
63.50 0.11372
64.00 0.09930
64.50 0.08485
65.00 0.07038
65.50 0.06233
66.00 0.05515
66.50 0.04798
67.00 0.04098
67.50 0.03403
68.00 0.03011
68.50 0.02659
69.00 0.02317
69.50 0.01975
70.00 0.01633
70.50 0.01460
71.00 0.01293
71.50 0.01126
72.00 0.00958
72.50 0.00801
73.00 0.00701
73.50 0.00624
74.00 0.00549
74.50 0.00474
75.00 0.00400
75.50 0.00341
76.00 0.00302
76.50 0.00263
77.00 0.00226
77.50 0.00193
78.00 0.00168
78.50 0.00150
79.00 0.00133
79.50 0.00117
80.00 0.00101
80.50 0.00086
81.00 0.00076
81.50 0.00067
82.00 0.00059
82.50 0.00053
83.00 0.00047
83.50 0.00042
84.00 0.00037
84.50 0.00032
85.00 0.00029
85.50 0.00026
86.00 0.00022
86.50 0.00019
87.00 0.00017
87.50 0.00014
88.00 0.00012
88.50 0.00010
89.00 0.00009
89.50 0.00008
90.00 0.00006
90.00 0.00006
90.50 0.00008
91.00 0.00009
91.50 0.00010
92.00 0.00012
92.50 0.00014
93.00 0.00017
93.50 0.00019
94.00 0.00022
94.50 0.00026
95.00 0.00029
95.50 0.00032
96.00 0.00037
96.50 0.00042
97.00 0.00047
97.50 0.00053
98.00 0.00059
98.50 0.00067
99.00 0.00076
99.50 0.00086
100.00 0.00101
100.50 0.00117
101.00 0.00133
101.50 0.00150
102.00 0.00168
102.50 0.00193
103.00 0.00226
103.50 0.00263
104.00 0.00302
104.50 0.00341
105.00 0.00400
105.50 0.00474
106.00 0.00549
106.50 0.00624
107.00 0.00701
107.50 0.00801
108.00 0.00958
108.50 0.01126
109.00 0.01293
109.50 0.01460
110.00 0.01633
110.50 0.01975
111.00 0.02317
111.50 0.02659
112.00 0.03011
112.50 0.03403
113.00 0.04098
113.50 0.04798
114.00 0.05515
114.50 0.06233
115.00 0.07038
115.50 0.08485
116.00 0.09930
116.50 0.11372
117.00 0.12802
117.50 0.14222
118.00 0.16161
118.50 0.18508
119.00 0.21105
119.50 0.23691
120.00 0.26264
120.50 0.28613
121.00 0.30913
121.50 0.33200
122.00 0.35640
122.50 0.38540
123.00 0.40279
123.50 0.42027
124.00 0.43912
124.50 0.45780
125.00 0.47631
125.50 0.49464
126.00 0.50911
126.50 0.51818
127.00 0.52936
127.50 0.54273
128.00 0.55604
128.50 0.56928
129.00 0.57902
129.50 0.58613
130.00 0.59531
130.50 0.60713
131.00 0.61897
131.50 0.62934
132.00 0.63854
132.50 0.65034
133.00 0.66335
133.50 0.67641
134.00 0.69001
134.50 0.70480
135.00 0.71956
135.50 0.73562
136.00 0.75177
136.50 0.76846
137.00 0.78558
137.50 0.80321
138.00 0.82134
138.50 0.83953
139.00 0.85837
139.50 0.87728
140.00 0.89693
140.50 0.91690
141.00 0.93693
141.50 0.95716
142.00 0.97743
142.50 0.99706
143.00 1.01656
143.50 1.03730
144.00 1.05812
144.50 1.07451
145.00 1.09083
145.50 1.10844
146.00 1.12608
146.50 1.14374
147.00 1.16071
147.50 1.17418
148.00 1.18769
148.50 1.20278
149.00 1.21831
149.50 1.23389
150.00 1.24951
150.50 1.26435
151.00 1.27864
151.50 1.29447
152.00 1.30993
152.50 1.32499
153.00 1.34009
153.50 1.35524
154.00 1.37050
154.50 1.38585
155.00 1.40124
155.50 1.41208
156.00 1.42288
156.50 1.43369
157.00 1.44188
157.50 1.44767
158.00 1.45350
158.50 1.45817
159.00 1.46270
159.50 1.46728
160.00 1.47189
160.50 1.47313
161.00 1.47412
161.50 1.47507
162.00 1.47731
162.50 1.48008
163.00 1.48293
163.50 1.48588
164.00 1.48810
164.50 1.49033
165.00 1.49254
165.50 1.49436
166.00 1.49627
166.50 1.49827
167.00 1.49995
167.50 1.50169
168.00 1.50290
168.50 1.50254
169.00 1.50226
169.50 1.50207
170.00 1.50163
170.50 1.49987
171.00 1.49762
171.50 1.49565
172.00 1.49486
172.50 1.49418
173.00 1.49362
173.50 1.49317
174.00 1.49275
174.50 1.49245
175.00 1.49232
175.50 1.49246
176.00 1.49272
176.50 1.49327
177.00 1.49399
177.50 1.49484
178.00 1.49580
178.50 1.49644
179.00 1.49712
179.50 1.49791
180.00 1.49880
180.00 1.49880
180.50 1.49791
181.00 1.49712
181.50 1.49644
182.00 1.49580
182.50 1.49484
183.00 1.49399
183.50 1.49327
184.00 1.49272
184.50 1.49246
185.00 1.49232
185.50 1.49245
186.00 1.49275
186.50 1.49317
187.00 1.49362
187.50 1.49418
188.00 1.49486
188.50 1.49565
189.00 1.49762
189.50 1.49987
190.00 1.50163
190.50 1.50207
191.00 1.50226
191.50 1.50254
192.00 1.50290
192.50 1.50169
193.00 1.49995
193.50 1.49827
194.00 1.49627
194.50 1.49436
195.00 1.49254
195.50 1.49033
196.00 1.48810
196.50 1.48588
197.00 1.48293
197.50 1.48008
198.00 1.47731
198.50 1.47507
199.00 1.47412
199.50 1.47313
200.00 1.47189
200.50 1.46728
201.00 1.46270
201.50 1.45817
202.00 1.45350
202.50 1.44767
203.00 1.44188
203.50 1.43369
204.00 1.42288
204.50 1.41208
205.00 1.40124
205.50 1.38585
206.00 1.37050
206.50 1.35524
207.00 1.34009
207.50 1.32499
208.00 1.30993
208.50 1.29447
209.00 1.27864
209.50 1.26435
210.00 1.24951
210.50 1.23389
211.00 1.21831
211.50 1.20278
212.00 1.18769
212.50 1.17418
213.00 1.16071
213.50 1.14374
214.00 1.12608
214.50 1.10844
215.00 1.09083
215.50 1.07451
216.00 1.05812
216.50 1.03730
217.00 1.01656
217.50 0.99706
218.00 0.97743
218.50 0.95716
219.00 0.93693
219.50 0.91690
220.00 0.89693
220.50 0.87728
221.00 0.85837
221.50 0.83953
222.00 0.82134
222.50 0.80321
223.00 0.78558
223.50 0.76846
224.00 0.75177
224.50 0.73562
225.00 0.71956
225.50 0.70480
226.00 0.69001
226.50 0.67641
227.00 0.66335
227.50 0.65034
228.00 0.63854
228.50 0.62934
229.00 0.61897
229.50 0.60713
230.00 0.59531
230.50 0.58613
231.00 0.57902
231.50 0.56928
232.00 0.55604
232.50 0.54273
233.00 0.52936
233.50 0.51818
234.00 0.50911
234.50 0.49464
235.00 0.47631
235.50 0.45780
236.00 0.43912
236.50 0.42027
237.00 0.40279
237.50 0.38540
238.00 0.35640
238.50 0.33200
239.00 0.30913
239.50 0.28613
240.00 0.26264
240.50 0.23691
241.00 0.21105
241.50 0.18508
242.00 0.16161
242.50 0.14222
243.00 0.12802
243.50 0.11372
244.00 0.09930
244.50 0.08485
245.00 0.07038
245.50 0.06233
246.00 0.05515
246.50 0.04798
247.00 0.04098
247.50 0.03403
248.00 0.03011
248.50 0.02659
249.00 0.02317
249.50 0.01975
250.00 0.01633
250.50 0.01460
251.00 0.01293
251.50 0.01126
252.00 0.00958
252.50 0.00801
253.00 0.00701
253.50 0.00624
254.00 0.00549
254.50 0.00474
255.00 0.00400
255.50 0.00341
256.00 0.00302
256.50 0.00263
257.00 0.00226
257.50 0.00193
258.00 0.00168
258.50 0.00150
259.00 0.00133
259.50 0.00117
260.00 0.00101
260.50 0.00086
261.00 0.00076
261.50 0.00067
262.00 0.00059
262.50 0.00053
263.00 0.00047
263.50 0.00042
264.00 0.00037
264.50 0.00032
265.00 0.00029
265.50 0.00026
266.00 0.00022
266.50 0.00019
267.00 0.00017
267.50 0.00014
268.00 0.00012
268.50 0.00010
269.00 0.00009
269.50 0.00008
270.00 0.00006
270.00 0.00006
270.50 0.00008
271.00 0.00009
271.50 0.00010
272.00 0.00012
272.50 0.00014
273.00 0.00017
273.50 0.00019
274.00 0.00022
274.50 0.00026
275.00 0.00029
275.50 0.00032
276.00 0.00037
276.50 0.00042
277.00 0.00047
277.50 0.00053
278.00 0.00059
278.50 0.00067
279.00 0.00076
279.50 0.00086
280.00 0.00101
280.50 0.00117
281.00 0.00133
281.50 0.00150
282.00 0.00168
282.50 0.00193
283.00 0.00226
283.50 0.00263
284.00 0.00302
284.50 0.00341
285.00 0.00400
285.50 0.00474
286.00 0.00549
286.50 0.00624
287.00 0.00701
287.50 0.00801
288.00 0.00958
288.50 0.01126
289.00 0.01293
289.50 0.01460
290.00 0.01633
290.50 0.01975
291.00 0.02317
291.50 0.02659
292.00 0.03011
292.50 0.03403
293.00 0.04098
293.50 0.04798
294.00 0.05515
294.50 0.06233
295.00 0.07038
295.50 0.08485
296.00 0.09930
296.50 0.11372
297.00 0.12802
297.50 0.14222
298.00 0.16161
298.50 0.18508
299.00 0.21105
299.50 0.23691
300.00 0.26264
300.50 0.28613
301.00 0.30913
301.50 0.33200
302.00 0.35640
302.50 0.38540
303.00 0.40279
303.50 0.42027
304.00 0.43912
304.50 0.45780
305.00 0.47631
305.50 0.49464
306.00 0.50911
306.50 0.51818
307.00 0.52936
307.50 0.54273
308.00 0.55604
308.50 0.56928
309.00 0.57902
309.50 0.58613
310.00 0.59531
310.50 0.60713
311.00 0.61897
311.50 0.62934
312.00 0.63854
312.50 0.65034
313.00 0.66335
313.50 0.67641
314.00 0.69001
314.50 0.70480
315.00 0.71956
315.50 0.73562
316.00 0.75177
316.50 0.76846
317.00 0.78558
317.50 0.80321
318.00 0.82134
318.50 0.83953
319.00 0.85837
319.50 0.87728
320.00 0.89693
320.50 0.91690
321.00 0.93693
321.50 0.95716
322.00 0.97743
322.50 0.99706
323.00 1.01656
323.50 1.03730
324.00 1.05812
324.50 1.07451
325.00 1.09083
325.50 1.10844
326.00 1.12608
326.50 1.14374
327.00 1.16071
327.50 1.17418
328.00 1.18769
328.50 1.20278
329.00 1.21831
329.50 1.23389
330.00 1.24951
330.50 1.26435
331.00 1.27864
331.50 1.29447
332.00 1.30993
332.50 1.32499
333.00 1.34009
333.50 1.35524
334.00 1.37050
334.50 1.38585
335.00 1.40124
335.50 1.41208
336.00 1.42288
336.50 1.43369
337.00 1.44188
337.50 1.44767
338.00 1.45350
338.50 1.45817
339.00 1.46270
339.50 1.46728
340.00 1.47189
340.50 1.47313
341.00 1.47412
341.50 1.47507
342.00 1.47731
342.50 1.48008
343.00 1.48293
343.50 1.48588
344.00 1.48810
344.50 1.49033
345.00 1.49254
345.50 1.49436
346.00 1.49627
346.50 1.49827
347.00 1.49995
347.50 1.50169
348.00 1.50290
348.50 1.50254
349.00 1.50226
349.50 1.50207
350.00 1.50163
350.50 1.49987
351.00 1.49762
351.50 1.49565
352.00 1.49486
352.50 1.49418
353.00 1.49362
353.50 1.49317
354.00 1.49275
354.50 1.49245
355.00 1.49232
355.50 1.49246
356.00 1.49272
356.50 1.49327
357.00 1.49399
357.50 1.49484
358.00 1.49580
358.50 1.49644
359.00 1.49712
359.50 1.49791
360.00 1.49880
