phi[deg] B[T]
0.00 1.70155
0.50 1.70075
1.00 1.70007
1.50 1.69951
2.00 1.69872
2.50 1.69813
3.00 1.69768
3.50 1.69698
4.00 1.69614
4.50 1.69608
5.00 1.69621
5.50 1.69669
6.00 1.69756
6.50 1.69857
7.00 1.69937
7.50 1.70028
8.00 1.70188
8.50 1.70433
9.00 1.70690
9.50 1.70854
10.00 1.70918
10.50 1.70993
11.00 1.71134
11.50 1.71285
12.00 1.71414
12.50 1.71266
13.00 1.71128
13.50 1.70993
14.00 1.70809
14.50 1.70617
15.00 1.70362
15.50 1.70116
16.00 1.69879
16.50 1.69653
17.00 1.69437
17.50 1.69231
18.00 1.69037
18.50 1.68853
19.00 1.68628
19.50 1.68217
20.00 1.67681
20.50 1.67426
21.00 1.67176
21.50 1.66932
22.00 1.66335
22.50 1.65321
23.00 1.64311
23.50 1.63413
24.00 1.62680
24.50 1.61050
25.00 1.59256
25.50 1.57680
26.00 1.56108
26.50 1.54540
27.00 1.52740
27.50 1.50820
28.00 1.48914
28.50 1.47104
29.00 1.45301
29.50 1.43545
30.00 1.41811
30.50 1.40084
31.00 1.38344
31.50 1.36544
32.00 1.34578
32.50 1.32852
33.00 1.31169
33.50 1.29490
34.00 1.27597
34.50 1.25534
35.00 1.23506
35.50 1.21529
36.00 1.19416
36.50 1.17121
37.00 1.14830
37.50 1.12471
38.00 1.10213
38.50 1.07965
39.00 1.05722
39.50 1.03439
40.00 1.01296
40.50 0.99179
41.00 0.97066
41.50 0.94980
42.00 0.93027
42.50 0.91082
43.00 0.89179
43.50 0.87373
44.00 0.85548
44.50 0.83792
45.00 0.82084
45.50 0.80460
46.00 0.78802
46.50 0.77229
47.00 0.75683
47.50 0.74204
48.00 0.72675
48.50 0.71322
49.00 0.69917
49.50 0.68354
50.00 0.66852
50.50 0.65648
51.00 0.64426
51.50 0.62812
52.00 0.61082
52.50 0.59345
53.00 0.57827
53.50 0.56486
54.00 0.54959
54.50 0.52918
55.00 0.50861
55.50 0.48789
56.00 0.46712
56.50 0.44668
57.00 0.42608
57.50 0.40166
58.00 0.37583
58.50 0.34981
59.00 0.32040
59.50 0.28914
60.00 0.25850
60.50 0.23624
61.00 0.21388
61.50 0.19143
62.00 0.16487
62.50 0.13794
63.00 0.12077
63.50 0.10372
64.00 0.09062
64.50 0.07758
65.00 0.06651
65.50 0.05833
66.00 0.05014
66.50 0.04192
67.00 0.03523
67.50 0.03127
68.00 0.02729
68.50 0.02325
69.00 0.01922
69.50 0.01692
70.00 0.01484
70.50 0.01269
71.00 0.01054
71.50 0.00909
72.00 0.00796
72.50 0.00683
73.00 0.00570
73.50 0.00492
74.00 0.00430
74.50 0.00374
75.00 0.00317
75.50 0.00268
76.00 0.00236
76.50 0.00205
77.00 0.00178
77.50 0.00154
78.00 0.00132
78.50 0.00118
79.00 0.00104
79.50 0.00089
80.00 0.00080
80.50 0.00070
81.00 0.00063
81.50 0.00057
82.00 0.00051
82.50 0.00045
83.00 0.00040
83.50 0.00037
84.00 0.00034
84.50 0.00030
85.00 0.00026
85.50 0.00024
86.00 0.00021
86.50 0.00018
87.00 0.00016
87.50 0.00013
88.00 0.00011
88.50 0.00009
89.00 0.00007
89.50 0.00006
90.00 0.00005
90.00 0.00005
90.50 0.00006
91.00 0.00007
91.50 0.00009
92.00 0.00011
92.50 0.00013
93.00 0.00016
93.50 0.00018
94.00 0.00021
94.50 0.00024
95.00 0.00026
95.50 0.00030
96.00 0.00034
96.50 0.00037
97.00 0.00040
97.50 0.00045
98.00 0.00051
98.50 0.00057
99.00 0.00063
99.50 0.00070
100.00 0.00080
100.50 0.00089
101.00 0.00104
101.50 0.00118
102.00 0.00132
102.50 0.00154
103.00 0.00178
103.50 0.00205
104.00 0.00236
104.50 0.00268
105.00 0.00317
105.50 0.00374
106.00 0.00430
106.50 0.00492
107.00 0.00570
107.50 0.00683
108.00 0.00796
108.50 0.00909
109.00 0.01054
109.50 0.01269
110.00 0.01484
110.50 0.01692
111.00 0.01922
111.50 0.02325
112.00 0.02729
112.50 0.03127
113.00 0.03523
113.50 0.04192
114.00 0.05014
114.50 0.05833
115.00 0.06651
115.50 0.07758
116.00 0.09062
116.50 0.10372
117.00 0.12077
117.50 0.13794
118.00 0.16487
118.50 0.19143
119.00 0.21388
119.50 0.23624
120.00 0.25850
120.50 0.28914
121.00 0.32040
121.50 0.34981
122.00 0.37583
122.50 0.40166
123.00 0.42608
123.50 0.44668
124.00 0.46712
124.50 0.48789
125.00 0.50861
125.50 0.52918
126.00 0.54959
126.50 0.56486
127.00 0.57827
127.50 0.59345
128.00 0.61082
128.50 0.62812
129.00 0.64426
129.50 0.65648
130.00 0.66852
130.50 0.68354
131.00 0.69917
131.50 0.71322
132.00 0.72675
132.50 0.74204
133.00 0.75683
133.50 0.77229
134.00 0.78802
134.50 0.80460
135.00 0.82084
135.50 0.83792
136.00 0.85548
136.50 0.87373
137.00 0.89179
137.50 0.91082
138.00 0.93027
138.50 0.94980
139.00 0.97066
139.50 0.99179
140.00 1.01296
140.50 1.03439
141.00 1.05722
141.50 1.07965
142.00 1.10213
142.50 1.12471
143.00 1.14830
143.50 1.17121
144.00 1.19416
144.50 1.21529
145.00 1.23506
145.50 1.25534
146.00 1.27597
146.50 1.29490
147.00 1.31169
147.50 1.32852
148.00 1.34578
148.50 1.36544
149.00 1.38344
149.50 1.40084
150.00 1.41811
150.50 1.43545
151.00 1.45301
151.50 1.47104
152.00 1.48914
152.50 1.50820
153.00 1.52740
153.50 1.54540
154.00 1.56108
154.50 1.57680
155.00 1.59256
155.50 1.61050
156.00 1.62680
156.50 1.63413
157.00 1.64311
157.50 1.65321
158.00 1.66335
158.50 1.66932
159.00 1.67176
159.50 1.67426
160.00 1.67681
160.50 1.68217
161.00 1.68628
161.50 1.68853
162.00 1.69037
162.50 1.69231
163.00 1.69437
163.50 1.69653
164.00 1.69879
164.50 1.70116
165.00 1.70362
165.50 1.70617
166.00 1.70809
166.50 1.70993
167.00 1.71128
167.50 1.71266
168.00 1.71414
168.50 1.71285
169.00 1.71134
169.50 1.70993
170.00 1.70918
170.50 1.70854
171.00 1.70690
171.50 1.70433
172.00 1.70188
172.50 1.70028
173.00 1.69937
173.50 1.69857
174.00 1.69756
174.50 1.69669
175.00 1.69621
175.50 1.69608
176.00 1.69614
176.50 1.69698
177.00 1.69768
177.50 1.69813
178.00 1.69872
178.50 1.69951
179.00 1.70007
179.50 1.70075
180.00 1.70155
180.00 1.70155
180.50 1.70075
181.00 1.70007
181.50 1.69951
182.00 1.69872
182.50 1.69813
183.00 1.69768
183.50 1.69698
184.00 1.69614
184.50 1.69608
185.00 1.69621
185.50 1.69669
186.00 1.69756
186.50 1.69857
187.00 1.69937
187.50 1.70028
188.00 1.70188
188.50 1.70433
189.00 1.70690
189.50 1.70854
190.00 1.70918
190.50 1.70993
191.00 1.71134
191.50 1.71285
192.00 1.71414
192.50 1.71266
193.00 1.71128
193.50 1.70993
194.00 1.70809
194.50 1.70617
195.00 1.70362
195.50 1.70116
196.00 1.69879
196.50 1.69653
197.00 1.69437
197.50 1.69231
198.00 1.69037
198.50 1.68853
199.00 1.68628
199.50 1.68217
200.00 1.67681
200.50 1.67426
201.00 1.67176
201.50 1.66932
202.00 1.66335
202.50 1.65321
203.00 1.64311
203.50 1.63413
204.00 1.62680
204.50 1.61050
205.00 1.59256
205.50 1.57680
206.00 1.56108
206.50 1.54540
207.00 1.52740
207.50 1.50820
208.00 1.48914
208.50 1.47104
209.00 1.45301
209.50 1.43545
210.00 1.41811
210.50 1.40084
211.00 1.38344
211.50 1.36544
212.00 1.34578
212.50 1.32852
213.00 1.31169
213.50 1.29490
214.00 1.27597
214.50 1.25534
215.00 1.23506
215.50 1.21529
216.00 1.19416
216.50 1.17121
217.00 1.14830
217.50 1.12471
218.00 1.10213
218.50 1.07965
219.00 1.05722
219.50 1.03439
220.00 1.01296
220.50 0.99179
221.00 0.97066
221.50 0.94980
222.00 0.93027
222.50 0.91082
223.00 0.89179
223.50 0.87373
224.00 0.85548
224.50 0.83792
225.00 0.82084
225.50 0.80460
226.00 0.78802
226.50 0.77229
227.00 0.75683
227.50 0.74204
228.00 0.72675
228.50 0.71322
229.00 0.69917
229.50 0.68354
230.00 0.66852
230.50 0.65648
231.00 0.64426
231.50 0.62812
232.00 0.61082
232.50 0.59345
233.00 0.57827
233.50 0.56486
234.00 0.54959
234.50 0.52918
235.00 0.50861
235.50 0.48789
236.00 0.46712
236.50 0.44668
237.00 0.42608
237.50 0.40166
238.00 0.37583
238.50 0.34981
239.00 0.32040
239.50 0.28914
240.00 0.25850
240.50 0.23624
241.00 0.21388
241.50 0.19143
242.00 0.16487
242.50 0.13794
243.00 0.12077
243.50 0.10372
244.00 0.09062
244.50 0.07758
245.00 0.06651
245.50 0.05833
246.00 0.05014
246.50 0.04192
247.00 0.03523
247.50 0.03127
248.00 0.02729
248.50 0.02325
249.00 0.01922
249.50 0.01692
250.00 0.01484
250.50 0.01269
251.00 0.01054
251.50 0.00909
252.00 0.00796
252.50 0.00683
253.00 0.00570
253.50 0.00492
254.00 0.00430
254.50 0.00374
255.00 0.00317
255.50 0.00268
256.00 0.00236
256.50 0.00205
257.00 0.00178
257.50 0.00154
258.00 0.00132
258.50 0.00118
259.00 0.00104
259.50 0.00089
260.00 0.00080
260.50 0.00070
261.00 0.00063
261.50 0.00057
262.00 0.00051
262.50 0.00045
263.00 0.00040
263.50 0.00037
264.00 0.00034
264.50 0.00030
265.00 0.00026
265.50 0.00024
266.00 0.00021
266.50 0.00018
267.00 0.00016
267.50 0.00013
268.00 0.00011
268.50 0.00009
269.00 0.00007
269.50 0.00006
270.00 0.00005
270.00 0.00005
270.50 0.00006
271.00 0.00007
271.50 0.00009
272.00 0.00011
272.50 0.00013
273.00 0.00016
273.50 0.00018
274.00 0.00021
274.50 0.00024
275.00 0.00026
275.50 0.00030
276.00 0.00034
276.50 0.00037
277.00 0.00040
277.50 0.00045
278.00 0.00051
278.50 0.00057
279.00 0.00063
279.50 0.00070
280.00 0.00080
280.50 0.00089
281.00 0.00104
281.50 0.00118
282.00 0.00132
282.50 0.00154
283.00 0.00178
283.50 0.00205
284.00 0.00236
284.50 0.00268
285.00 0.00317
285.50 0.00374
286.00 0.00430
286.50 0.00492
287.00 0.00570
287.50 0.00683
288.00 0.00796
288.50 0.00909
289.00 0.01054
289.50 0.01269
290.00 0.01484
290.50 0.01692
291.00 0.01922
291.50 0.02325
292.00 0.02729
292.50 0.03127
293.00 0.03523
293.50 0.04192
294.00 0.05014
294.50 0.05833
295.00 0.06651
295.50 0.07758
296.00 0.09062
296.50 0.10372
297.00 0.12077
297.50 0.13794
298.00 0.16487
298.50 0.19143
299.00 0.21388
299.50 0.23624
300.00 0.25850
300.50 0.28914
301.00 0.32040
301.50 0.34981
302.00 0.37583
302.50 0.40166
303.00 0.42608
303.50 0.44668
304.00 0.46712
304.50 0.48789
305.00 0.50861
305.50 0.52918
306.00 0.54959
306.50 0.56486
307.00 0.57827
307.50 0.59345
308.00 0.61082
308.50 0.62812
309.00 0.64426
309.50 0.65648
310.00 0.66852
310.50 0.68354
311.00 0.69917
311.50 0.71322
312.00 0.72675
312.50 0.74204
313.00 0.75683
313.50 0.77229
314.00 0.78802
314.50 0.80460
315.00 0.82084
315.50 0.83792
316.00 0.85548
316.50 0.87373
317.00 0.89179
317.50 0.91082
318.00 0.93027
318.50 0.94980
319.00 0.97066
319.50 0.99179
320.00 1.01296
320.50 1.03439
321.00 1.05722
321.50 1.07965
322.00 1.10213
322.50 1.12471
323.00 1.14830
323.50 1.17121
324.00 1.19416
324.50 1.21529
325.00 1.23506
325.50 1.25534
326.00 1.27597
326.50 1.29490
327.00 1.31169
327.50 1.32852
328.00 1.34578
328.50 1.36544
329.00 1.38344
329.50 1.40084
330.00 1.41811
330.50 1.43545
331.00 1.45301
331.50 1.47104
332.00 1.48914
332.50 1.50820
333.00 1.52740
333.50 1.54540
334.00 1.56108
334.50 1.57680
335.00 1.59256
335.50 1.61050
336.00 1.62680
336.50 1.63413
337.00 1.64311
337.50 1.65321
338.00 1.66335
338.50 1.66932
339.00 1.67176
339.50 1.67426
340.00 1.67681
340.50 1.68217
341.00 1.68628
341.50 1.68853
342.00 1.69037
342.50 1.69231
343.00 1.69437
343.50 1.69653
344.00 1.69879
344.50 1.70116
345.00 1.70362
345.50 1.70617
346.00 1.70809
346.50 1.70993
347.00 1.71128
347.50 1.71266
348.00 1.71414
348.50 1.71285
349.00 1.71134
349.50 1.70993
350.00 1.70918
350.50 1.70854
351.00 1.70690
351.50 1.70433
352.00 1.70188
352.50 1.70028
353.00 1.69937
353.50 1.69857
354.00 1.69756
354.50 1.69669
355.00 1.69621
355.50 1.69608
356.00 1.69614
356.50 1.69698
357.00 1.69768
357.50 1.69813
358.00 1.69872
358.50 1.69951
359.00 1.70007
359.50 1.70075
360.00 1.70155
