phi[deg] B[T]
0.00 1.97104
0.50 1.97102
1.00 1.97115
1.50 1.97143
2.00 1.97186
2.50 1.97252
3.00 1.97279
3.50 1.97390
4.00 1.97516
4.50 1.97655
5.00 1.97809
5.50 1.97976
6.00 1.98174
6.50 1.98386
7.00 1.98612
7.50 1.98695
8.00 1.98776
8.50 1.98905
9.00 1.99093
9.50 1.99292
10.00 1.99505
10.50 1.99472
11.00 1.99364
11.50 1.99325
12.00 1.99331
12.50 1.99347
13.00 1.99374
13.50 1.99387
14.00 1.99263
14.50 1.99053
15.00 1.98596
15.50 1.98208
16.00 1.97997
16.50 1.97794
17.00 1.97599
17.50 1.97298
18.00 1.96662
18.50 1.96031
19.00 1.95433
19.50 1.95067
20.00 1.94705
20.50 1.94167
21.00 1.93356
21.50 1.92549
22.00 1.91626
22.50 1.90559
23.00 1.89494
23.50 1.88431
24.00 1.87060
24.50 1.85620
25.00 1.84182
25.50 1.82733
26.00 1.81015
26.50 1.79339
27.00 1.77677
27.50 1.76017
28.00 1.74262
28.50 1.72386
29.00 1.70494
29.50 1.68495
30.00 1.66497
30.50 1.64501
31.00 1.62319
31.50 1.60036
32.00 1.57964
32.50 1.55893
33.00 1.53821
33.50 1.51625
34.00 1.49267
34.50 1.46909
35.00 1.44467
35.50 1.41936
36.00 1.39405
36.50 1.36874
37.00 1.34317
37.50 1.31698
38.00 1.29135
38.50 1.26573
39.00 1.24011
39.50 1.21432
40.00 1.18842
40.50 1.16355
41.00 1.13867
41.50 1.11379
42.00 1.08861
42.50 1.06443
43.00 1.04094
43.50 1.01754
44.00 0.99444
44.50 0.97133
45.00 0.94800
45.50 0.92564
46.00 0.90379
46.50 0.88192
47.00 0.86085
47.50 0.84043
48.00 0.81894
48.50 0.79662
49.00 0.77648
49.50 0.75665
50.00 0.73646
50.50 0.71508
51.00 0.69588
51.50 0.67662
52.00 0.65731
52.50 0.63784
53.00 0.61541
53.50 0.59471
54.00 0.57477
54.50 0.55475
55.00 0.53467
55.50 0.51430
56.00 0.49203
56.50 0.47183
57.00 0.45156
57.50 0.43120
58.00 0.41082
58.50 0.39123
59.00 0.37156
59.50 0.34988
60.00 0.32812
60.50 0.30630
61.00 0.28441
61.50 0.26296
62.00 0.24700
62.50 0.23121
63.00 0.21537
63.50 0.19947
64.00 0.18353
64.50 0.16680
65.00 0.15582
65.50 0.14505
66.00 0.13427
66.50 0.12342
67.00 0.11247
67.50 0.10150
68.00 0.09277
68.50 0.08673
69.00 0.08068
69.50 0.07463
70.00 0.06846
70.50 0.06228
71.00 0.05611
71.50 0.05030
72.00 0.04671
72.50 0.04336
73.00 0.04000
73.50 0.03666
74.00 0.03331
74.50 0.02997
75.00 0.02757
75.50 0.02572
76.00 0.02387
76.50 0.02203
77.00 0.02018
77.50 0.01827
78.00 0.01635
78.50 0.01511
79.00 0.01412
79.50 0.01314
80.00 0.01215
80.50 0.01116
81.00 0.01017
81.50 0.00921
82.00 0.00852
82.50 0.00795
83.00 0.00742
83.50 0.00688
84.00 0.00635
84.50 0.00587
85.00 0.00559
85.50 0.00531
86.00 0.00502
86.50 0.00473
87.00 0.00443
87.50 0.00433
88.00 0.00422
88.50 0.00410
89.00 0.00398
89.50 0.00386
90.00 0.00374
90.00 0.00374
90.50 0.00386
91.00 0.00398
91.50 0.00410
92.00 0.00422
92.50 0.00433
93.00 0.00443
93.50 0.00473
94.00 0.00502
94.50 0.00531
95.00 0.00559
95.50 0.00587
96.00 0.00635
96.50 0.00688
97.00 0.00742
97.50 0.00795
98.00 0.00852
98.50 0.00921
99.00 0.01017
99.50 0.01116
100.00 0.01215
100.50 0.01314
101.00 0.01412
101.50 0.01511
102.00 0.01635
102.50 0.01827
103.00 0.02018
103.50 0.02203
104.00 0.02387
104.50 0.02572
105.00 0.02757
105.50 0.02997
106.00 0.03331
106.50 0.03666
107.00 0.04000
107.50 0.04336
108.00 0.04671
108.50 0.05030
109.00 0.05611
109.50 0.06228
110.00 0.06846
110.50 0.07463
111.00 0.08068
111.50 0.08673
112.00 0.09277
112.50 0.10150
113.00 0.11247
113.50 0.12342
114.00 0.13427
114.50 0.14505
115.00 0.15582
115.50 0.16680
116.00 0.18353
116.50 0.19947
117.00 0.21537
117.50 0.23121
118.00 0.24700
118.50 0.26296
119.00 0.28441
119.50 0.30630
120.00 0.32812
120.50 0.34988
121.00 0.37156
121.50 0.39123
122.00 0.41082
122.50 0.43120
123.00 0.45156
123.50 0.47183
124.00 0.49203
124.50 0.51430
125.00 0.53467
125.50 0.55475
126.00 0.57477
126.50 0.59471
127.00 0.61541
127.50 0.63784
128.00 0.65731
128.50 0.67662
129.00 0.69588
129.50 0.71508
130.00 0.73646
130.50 0.75665
131.00 0.77648
131.50 0.79662
132.00 0.81894
132.50 0.84043
133.00 0.86085
133.50 0.88192
134.00 0.90379
134.50 0.92564
135.00 0.94800
135.50 0.97133
136.00 0.99444
136.50 1.01754
137.00 1.04094
137.50 1.06443
138.00 1.08861
138.50 1.11379
139.00 1.13867
139.50 1.16355
140.00 1.18842
140.50 1.21432
141.00 1.24011
141.50 1.26573
142.00 1.29135
142.50 1.31698
143.00 1.34317
143.50 1.36874
144.00 1.39405
144.50 1.41936
145.00 1.44467
145.50 1.46909
146.00 1.49267
146.50 1.51625
147.00 1.53821
147.50 1.55893
148.00 1.57964
148.50 1.60036
149.00 1.62319
149.50 1.64501
150.00 1.66497
150.50 1.68495
151.00 1.70494
151.50 1.72386
152.00 1.74262
152.50 1.76017
153.00 1.77677
153.50 1.79339
154.00 1.81015
154.50 1.82733
155.00 1.84182
155.50 1.85620
156.00 1.87060
156.50 1.88431
157.00 1.89494
157.50 1.90559
158.00 1.91626
158.50 1.92549
159.00 1.93356
159.50 1.94167
160.00 1.94705
160.50 1.95067
161.00 1.95433
161.50 1.96031
162.00 1.96662
162.50 1.97298
163.00 1.97599
163.50 1.97794
164.00 1.97997
164.50 1.98208
165.00 1.98596
165.50 1.99053
166.00 1.99263
166.50 1.99387
167.00 1.99374
167.50 1.99347
168.00 1.99331
168.50 1.99325
169.00 1.99364
169.50 1.99472
170.00 1.99505
170.50 1.99292
171.00 1.99093
171.50 1.98905
172.00 1.98776
172.50 1.98695
173.00 1.98612
173.50 1.98386
174.00 1.98174
174.50 1.97976
175.00 1.97809
175.50 1.97655
176.00 1.97516
176.50 1.97390
177.00 1.97279
177.50 1.97252
178.00 1.97186
178.50 1.97143
179.00 1.97115
179.50 1.97102
180.00 1.97104
180.00 1.97104
180.50 1.97102
181.00 1.97115
181.50 1.97143
182.00 1.97186
182.50 1.97252
183.00 1.97279
183.50 1.97390
184.00 1.97516
184.50 1.97655
185.00 1.97809
185.50 1.97976
186.00 1.98174
186.50 1.98386
187.00 1.98612
187.50 1.98695
188.00 1.98776
188.50 1.98905
189.00 1.99093
189.50 1.99292
190.00 1.99505
190.50 1.99472
191.00 1.99364
191.50 1.99325
192.00 1.99331
192.50 1.99347
193.00 1.99374
193.50 1.99387
194.00 1.99263
194.50 1.99053
195.00 1.98596
195.50 1.98208
196.00 1.97997
196.50 1.97794
197.00 1.97599
197.50 1.97298
198.00 1.96662
198.50 1.96031
199.00 1.95433
199.50 1.95067
200.00 1.94705
200.50 1.94167
201.00 1.93356
201.50 1.92549
202.00 1.91626
202.50 1.90559
203.00 1.89494
203.50 1.88431
204.00 1.87060
204.50 1.85620
205.00 1.84182
205.50 1.82733
206.00 1.81015
206.50 1.79339
207.00 1.77677
207.50 1.76017
208.00 1.74262
208.50 1.72386
209.00 1.70494
209.50 1.68495
210.00 1.66497
210.50 1.64501
211.00 1.62319
211.50 1.60036
212.00 1.57964
212.50 1.55893
213.00 1.53821
213.50 1.51625
214.00 1.49267
214.50 1.46909
215.00 1.44467
215.50 1.41936
216.00 1.39405
216.50 1.36874
217.00 1.34317
217.50 1.31698
218.00 1.29135
218.50 1.26573
219.00 1.24011
219.50 1.21432
220.00 1.18842
220.50 1.16355
221.00 1.13867
221.50 1.11379
222.00 1.08861
222.50 1.06443
223.00 1.04094
223.50 1.01754
224.00 0.99444
224.50 0.97133
225.00 0.94800
225.50 0.92564
226.00 0.90379
226.50 0.88192
227.00 0.86085
227.50 0.84043
228.00 0.81894
228.50 0.79662
229.00 0.77648
229.50 0.75665
230.00 0.73646
230.50 0.71508
231.00 0.69588
231.50 0.67662
232.00 0.65731
232.50 0.63784
233.00 0.61541
233.50 0.59471
234.00 0.57477
234.50 0.55475
235.00 0.53467
235.50 0.51430
236.00 0.49203
236.50 0.47183
237.00 0.45156
237.50 0.43120
238.00 0.41082
238.50 0.39123
239.00 0.37156
239.50 0.34988
240.00 0.32812
240.50 0.30630
241.00 0.28441
241.50 0.26296
242.00 0.24700
242.50 0.23121
243.00 0.21537
243.50 0.19947
244.00 0.18353
244.50 0.16680
245.00 0.15582
245.50 0.14505
246.00 0.13427
246.50 0.12342
247.00 0.11247
247.50 0.10150
248.00 0.09277
248.50 0.08673
249.00 0.08068
249.50 0.07463
250.00 0.06846
250.50 0.06228
251.00 0.05611
251.50 0.05030
252.00 0.04671
252.50 0.04336
253.00 0.04000
253.50 0.03666
254.00 0.03331
254.50 0.02997
255.00 0.02757
255.50 0.02572
256.00 0.02387
256.50 0.02203
257.00 0.02018
257.50 0.01827
258.00 0.01635
258.50 0.01511
259.00 0.01412
259.50 0.01314
260.00 0.01215
260.50 0.01116
261.00 0.01017
261.50 0.00921
262.00 0.00852
262.50 0.00795
263.00 0.00742
263.50 0.00688
264.00 0.00635
264.50 0.00587
265.00 0.00559
265.50 0.00531
266.00 0.00502
266.50 0.00473
267.00 0.00443
267.50 0.00433
268.00 0.00422
268.50 0.00410
269.00 0.00398
269.50 0.00386
270.00 0.00374
270.00 0.00374
270.50 0.00386
271.00 0.00398
271.50 0.00410
272.00 0.00422
272.50 0.00433
273.00 0.00443
273.50 0.00473
274.00 0.00502
274.50 0.00531
275.00 0.00559
275.50 0.00587
276.00 0.00635
276.50 0.00688
277.00 0.00742
277.50 0.00795
278.00 0.00852
278.50 0.00921
279.00 0.01017
279.50 0.01116
280.00 0.01215
280.50 0.01314
281.00 0.01412
281.50 0.01511
282.00 0.01635
282.50 0.01827
283.00 0.02018
283.50 0.02203
284.00 0.02387
284.50 0.02572
285.00 0.02757
285.50 0.02997
286.00 0.03331
286.50 0.03666
287.00 0.04000
287.50 0.04336
288.00 0.04671
288.50 0.05030
289.00 0.05611
289.50 0.06228
290.00 0.06846
290.50 0.07463
291.00 0.08068
291.50 0.08673
292.00 0.09277
292.50 0.10150
293.00 0.11247
293.50 0.12342
294.00 0.13427
294.50 0.14505
295.00 0.15582
295.50 0.16680
296.00 0.18353
296.50 0.19947
297.00 0.21537
297.50 0.23121
298.00 0.24700
298.50 0.26296
299.00 0.28441
299.50 0.30630
300.00 0.32812
300.50 0.34988
301.00 0.37156
301.50 0.39123
302.00 0.41082
302.50 0.43120
303.00 0.45156
303.50 0.47183
304.00 0.49203
304.50 0.51430
305.00 0.53467
305.50 0.55475
306.00 0.57477
306.50 0.59471
307.00 0.61541
307.50 0.63784
308.00 0.65731
308.50 0.67662
309.00 0.69588
309.50 0.71508
310.00 0.73646
310.50 0.75665
311.00 0.77648
311.50 0.79662
312.00 0.81894
312.50 0.84043
313.00 0.86085
313.50 0.88192
314.00 0.90379
314.50 0.92564
315.00 0.94800
315.50 0.97133
316.00 0.99444
316.50 1.01754
317.00 1.04094
317.50 1.06443
318.00 1.08861
318.50 1.11379
319.00 1.13867
319.50 1.16355
320.00 1.18842
320.50 1.21432
321.00 1.24011
321.50 1.26573
322.00 1.29135
322.50 1.31698
323.00 1.34317
323.50 1.36874
324.00 1.39405
324.50 1.41936
325.00 1.44467
325.50 1.46909
326.00 1.49267
326.50 1.51625
327.00 1.53821
327.50 1.55893
328.00 1.57964
328.50 1.60036
329.00 1.62319
329.50 1.64501
330.00 1.66497
330.50 1.68495
331.00 1.70494
331.50 1.72386
332.00 1.74262
332.50 1.76017
333.00 1.77677
333.50 1.79339
334.00 1.81015
334.50 1.82733
335.00 1.84182
335.50 1.85620
336.00 1.87060
336.50 1.88431
337.00 1.89494
337.50 1.90559
338.00 1.91626
338.50 1.92549
339.00 1.93356
339.50 1.94167
340.00 1.94705
340.50 1.95067
341.00 1.95433
341.50 1.96031
342.00 1.96662
342.50 1.97298
343.00 1.97599
343.50 1.97794
344.00 1.97997
344.50 1.98208
345.00 1.98596
345.50 1.99053
346.00 1.99263
346.50 1.99387
347.00 1.99374
347.50 1.99347
348.00 1.99331
348.50 1.99325
349.00 1.99364
349.50 1.99472
350.00 1.99505
350.50 1.99292
351.00 1.99093
351.50 1.98905
352.00 1.98776
352.50 1.98695
353.00 1.98612
353.50 1.98386
354.00 1.98174
354.50 1.97976
355.00 1.97809
355.50 1.97655
356.00 1.97516
356.50 1.97390
357.00 1.97279
357.50 1.97252
358.00 1.97186
358.50 1.97143
359.00 1.97115
359.50 1.97102
360.00 1.97104
