phi[deg] B[T]
0.00 1.23576
0.50 1.23469
1.00 1.23371
1.50 1.23286
2.00 1.23131
2.50 1.22986
3.00 1.22858
3.50 1.22774
4.00 1.22684
4.50 1.22578
5.00 1.22491
5.50 1.22487
6.00 1.22494
6.50 1.22583
7.00 1.22693
7.50 1.22781
8.00 1.22858
8.50 1.22949
9.00 1.23199
9.50 1.23385
10.00 1.23508
10.50 1.23531
11.00 1.23560
11.50 1.23375
12.00 1.23172
12.50 1.22992
13.00 1.22806
13.50 1.22527
14.00 1.22249
14.50 1.21976
15.00 1.21696
15.50 1.21438
16.00 1.21219
16.50 1.21041
17.00 1.20868
17.50 1.20747
18.00 1.20620
18.50 1.20487
19.00 1.20393
19.50 1.20307
20.00 1.20230
20.50 1.20063
21.00 1.19824
21.50 1.19599
22.00 1.19377
22.50 1.19159
23.00 1.18689
23.50 1.18083
24.00 1.17481
24.50 1.16883
25.00 1.16289
25.50 1.15649
26.00 1.14929
26.50 1.14195
27.00 1.13466
27.50 1.12741
28.00 1.12105
28.50 1.11418
29.00 1.10490
29.50 1.09601
30.00 1.08769
30.50 1.07939
31.00 1.06961
31.50 1.05533
32.00 1.04287
32.50 1.03154
33.00 1.01595
33.50 0.99712
34.00 0.97914
34.50 0.96014
35.00 0.93479
35.50 0.91139
36.00 0.88790
36.50 0.86099
37.00 0.83277
37.50 0.80582
38.00 0.78085
38.50 0.75555
39.00 0.72565
39.50 0.69480
40.00 0.66378
40.50 0.63612
41.00 0.60863
41.50 0.57460
42.00 0.53906
42.50 0.50081
43.00 0.46218
43.50 0.42339
44.00 0.38643
44.50 0.34928
45.00 0.31196
45.50 0.27278
46.00 0.23344
46.50 0.19995
47.00 0.17209
47.50 0.14419
48.00 0.12264
48.50 0.10544
49.00 0.08793
49.50 0.07150
50.00 0.06203
50.50 0.05255
51.00 0.04306
51.50 0.03515
52.00 0.03023
52.50 0.02524
53.00 0.02025
53.50 0.01708
54.00 0.01449
54.50 0.01189
55.00 0.01023
55.50 0.00874
56.00 0.00720
56.50 0.00598
57.00 0.00522
57.50 0.00447
58.00 0.00371
58.50 0.00327
59.00 0.00291
59.50 0.00259
60.00 0.00226
60.50 0.00214
61.00 0.00203
61.50 0.00190
62.00 0.00175
62.50 0.00166
63.00 0.00161
63.50 0.00157
64.00 0.00153
64.50 0.00149
65.00 0.00144
65.50 0.00141
66.00 0.00139
66.50 0.00136
67.00 0.00132
67.50 0.00129
68.00 0.00127
68.50 0.00124
69.00 0.00121
69.50 0.00118
70.00 0.00116
70.50 0.00113
71.00 0.00110
71.50 0.00107
72.00 0.00104
72.50 0.00102
73.00 0.00099
73.50 0.00096
74.00 0.00093
74.50 0.00090
75.00 0.00088
75.50 0.00085
76.00 0.00082
76.50 0.00079
77.00 0.00076
77.50 0.00074
78.00 0.00071
78.50 0.00068
79.00 0.00065
79.50 0.00062
80.00 0.00060
80.50 0.00057
81.00 0.00054
81.50 0.00051
82.00 0.00048
82.50 0.00046
83.00 0.00043
83.50 0.00040
84.00 0.00038
84.50 0.00035
85.00 0.00032
85.50 0.00030
86.00 0.00027
86.50 0.00025
87.00 0.00022
87.50 0.00020
88.00 0.00018
88.50 0.00016
89.00 0.00015
89.50 0.00014
90.00 0.00013
90.00 0.00013
90.50 0.00014
91.00 0.00015
91.50 0.00016
92.00 0.00018
92.50 0.00020
93.00 0.00022
93.50 0.00025
94.00 0.00027
94.50 0.00030
95.00 0.00032
95.50 0.00035
96.00 0.00038
96.50 0.00040
97.00 0.00043
97.50 0.00046
98.00 0.00048
98.50 0.00051
99.00 0.00054
99.50 0.00057
100.00 0.00060
100.50 0.00062
101.00 0.00065
101.50 0.00068
102.00 0.00071
102.50 0.00074
103.00 0.00076
103.50 0.00079
104.00 0.00082
104.50 0.00085
105.00 0.00088
105.50 0.00090
106.00 0.00093
106.50 0.00096
107.00 0.00099
107.50 0.00102
108.00 0.00104
108.50 0.00107
109.00 0.00110
109.50 0.00113
110.00 0.00116
110.50 0.00118
111.00 0.00121
111.50 0.00124
112.00 0.00127
112.50 0.00129
113.00 0.00132
113.50 0.00136
114.00 0.00139
114.50 0.00141
115.00 0.00144
115.50 0.00149
116.00 0.00153
116.50 0.00157
117.00 0.00161
117.50 0.00166
118.00 0.00175
118.50 0.00190
119.00 0.00203
119.50 0.00214
120.00 0.00226
120.50 0.00259
121.00 0.00291
121.50 0.00327
122.00 0.00371
122.50 0.00447
123.00 0.00522
123.50 0.00598
124.00 0.00720
124.50 0.00874
125.00 0.01023
125.50 0.01189
126.00 0.01449
126.50 0.01708
127.00 0.02025
127.50 0.02524
128.00 0.03023
128.50 0.03515
129.00 0.04306
129.50 0.05255
130.00 0.06203
130.50 0.07150
131.00 0.08793
131.50 0.10544
132.00 0.12264
132.50 0.14419
133.00 0.17209
133.50 0.19995
134.00 0.23344
134.50 0.27278
135.00 0.31196
135.50 0.34928
136.00 0.38643
136.50 0.42339
137.00 0.46218
137.50 0.50081
138.00 0.53906
138.50 0.57460
139.00 0.60863
139.50 0.63612
140.00 0.66378
140.50 0.69480
141.00 0.72565
141.50 0.75555
142.00 0.78085
142.50 0.80582
143.00 0.83277
143.50 0.86099
144.00 0.88790
144.50 0.91139
145.00 0.93479
145.50 0.96014
146.00 0.97914
146.50 0.99712
147.00 1.01595
147.50 1.03154
148.00 1.04287
148.50 1.05533
149.00 1.06961
149.50 1.07939
150.00 1.08769
150.50 1.09601
151.00 1.10490
151.50 1.11418
152.00 1.12105
152.50 1.12741
153.00 1.13466
153.50 1.14195
154.00 1.14929
154.50 1.15649
155.00 1.16289
155.50 1.16883
156.00 1.17481
156.50 1.18083
157.00 1.18689
157.50 1.19159
158.00 1.19377
158.50 1.19599
159.00 1.19824
159.50 1.20063
160.00 1.20230
160.50 1.20307
161.00 1.20393
161.50 1.20487
162.00 1.20620
162.50 1.20747
163.00 1.20868
163.50 1.21041
164.00 1.21219
164.50 1.21438
165.00 1.21696
165.50 1.21976
166.00 1.22249
166.50 1.22527
167.00 1.22806
167.50 1.22992
168.00 1.23172
168.50 1.23375
169.00 1.23560
169.50 1.23531
170.00 1.23508
170.50 1.23385
171.00 1.23199
171.50 1.22949
172.00 1.22858
172.50 1.22781
173.00 1.22693
173.50 1.22583
174.00 1.22494
174.50 1.22487
175.00 1.22491
175.50 1.22578
176.00 1.22684
176.50 1.22774
177.00 1.22858
177.50 1.22986
178.00 1.23131
178.50 1.23286
179.00 1.23371
179.50 1.23469
180.00 1.23576
180.00 1.23576
180.50 1.23469
181.00 1.23371
181.50 1.23286
182.00 1.23131
182.50 1.22986
183.00 1.22858
183.50 1.22774
184.00 1.22684
184.50 1.22578
185.00 1.22491
185.50 1.22487
186.00 1.22494
186.50 1.22583
187.00 1.22693
187.50 1.22781
188.00 1.22858
188.50 1.22949
189.00 1.23199
189.50 1.23385
190.00 1.23508
190.50 1.23531
191.00 1.23560
191.50 1.23375
192.00 1.23172
192.50 1.22992
193.00 1.22806
193.50 1.22527
194.00 1.22249
194.50 1.21976
195.00 1.21696
195.50 1.21438
196.00 1.21219
196.50 1.21041
197.00 1.20868
197.50 1.20747
198.00 1.20620
198.50 1.20487
199.00 1.20393
199.50 1.20307
200.00 1.20230
200.50 1.20063
201.00 1.19824
201.50 1.19599
202.00 1.19377
202.50 1.19159
203.00 1.18689
203.50 1.18083
204.00 1.17481
204.50 1.16883
205.00 1.16289
205.50 1.15649
206.00 1.14929
206.50 1.14195
207.00 1.13466
207.50 1.12741
208.00 1.12105
208.50 1.11418
209.00 1.10490
209.50 1.09601
210.00 1.08769
210.50 1.07939
211.00 1.06961
211.50 1.05533
212.00 1.04287
212.50 1.03154
213.00 1.01595
213.50 0.99712
214.00 0.97914
214.50 0.96014
215.00 0.93479
215.50 0.91139
216.00 0.88790
216.50 0.86099
217.00 0.83277
217.50 0.80582
218.00 0.78085
218.50 0.75555
219.00 0.72565
219.50 0.69480
220.00 0.66378
220.50 0.63612
221.00 0.60863
221.50 0.57460
222.00 0.53906
222.50 0.50081
223.00 0.46218
223.50 0.42339
224.00 0.38643
224.50 0.34928
225.00 0.31196
225.50 0.27278
226.00 0.23344
226.50 0.19995
227.00 0.17209
227.50 0.14419
228.00 0.12264
228.50 0.10544
229.00 0.08793
229.50 0.07150
230.00 0.06203
230.50 0.05255
231.00 0.04306
231.50 0.03515
232.00 0.03023
232.50 0.02524
233.00 0.02025
233.50 0.01708
234.00 0.01449
234.50 0.01189
235.00 0.01023
235.50 0.00874
236.00 0.00720
236.50 0.00598
237.00 0.00522
237.50 0.00447
238.00 0.00371
238.50 0.00327
239.00 0.00291
239.50 0.00259
240.00 0.00226
240.50 0.00214
241.00 0.00203
241.50 0.00190
242.00 0.00175
242.50 0.00166
243.00 0.00161
243.50 0.00157
244.00 0.00153
244.50 0.00149
245.00 0.00144
245.50 0.00141
246.00 0.00139
246.50 0.00136
247.00 0.00132
247.50 0.00129
248.00 0.00127
248.50 0.00124
249.00 0.00121
249.50 0.00118
250.00 0.00116
250.50 0.00113
251.00 0.00110
251.50 0.00107
252.00 0.00104
252.50 0.00102
253.00 0.00099
253.50 0.00096
254.00 0.00093
254.50 0.00090
255.00 0.00088
255.50 0.00085
256.00 0.00082
256.50 0.00079
257.00 0.00076
257.50 0.00074
258.00 0.00071
258.50 0.00068
259.00 0.00065
259.50 0.00062
260.00 0.00060
260.50 0.00057
261.00 0.00054
261.50 0.00051
262.00 0.00048
262.50 0.00046
263.00 0.00043
263.50 0.00040
264.00 0.00038
264.50 0.00035
265.00 0.00032
265.50 0.00030
266.00 0.00027
266.50 0.00025
267.00 0.00022
267.50 0.00020
268.00 0.00018
268.50 0.00016
269.00 0.00015
269.50 0.00014
270.00 0.00013
270.00 0.00013
270.50 0.00014
271.00 0.00015
271.50 0.00016
272.00 0.00018
272.50 0.00020
273.00 0.00022
273.50 0.00025
274.00 0.00027
274.50 0.00030
275.00 0.00032
275.50 0.00035
276.00 0.00038
276.50 0.00040
277.00 0.00043
277.50 0.00046
278.00 0.00048
278.50 0.00051
279.00 0.00054
279.50 0.00057
280.00 0.00060
280.50 0.00062
281.00 0.00065
281.50 0.00068
282.00 0.00071
282.50 0.00074
283.00 0.00076
283.50 0.00079
284.00 0.00082
284.50 0.00085
285.00 0.00088
285.50 0.00090
286.00 0.00093
286.50 0.00096
287.00 0.00099
287.50 0.00102
288.00 0.00104
288.50 0.00107
289.00 0.00110
289.50 0.00113
290.00 0.00116
290.50 0.00118
291.00 0.00121
291.50 0.00124
292.00 0.00127
292.50 0.00129
293.00 0.00132
293.50 0.00136
294.00 0.00139
294.50 0.00141
295.00 0.00144
295.50 0.00149
296.00 0.00153
296.50 0.00157
297.00 0.00161
297.50 0.00166
298.00 0.00175
298.50 0.00190
299.00 0.00203
299.50 0.00214
300.00 0.00226
300.50 0.00259
301.00 0.00291
301.50 0.00327
302.00 0.00371
302.50 0.00447
303.00 0.00522
303.50 0.00598
304.00 0.00720
304.50 0.00874
305.00 0.01023
305.50 0.01189
306.00 0.01449
306.50 0.01708
307.00 0.02025
307.50 0.02524
308.00 0.03023
308.50 0.03515
309.00 0.04306
309.50 0.05255
310.00 0.06203
310.50 0.07150
311.00 0.08793
311.50 0.10544
312.00 0.12264
312.50 0.14419
313.00 0.17209
313.50 0.19995
314.00 0.23344
314.50 0.27278
315.00 0.31196
315.50 0.34928
316.00 0.38643
316.50 0.42339
317.00 0.46218
317.50 0.50081
318.00 0.53906
318.50 0.57460
319.00 0.60863
319.50 0.63612
320.00 0.66378
320.50 0.69480
321.00 0.72565
321.50 0.75555
322.00 0.78085
322.50 0.80582
323.00 0.83277
323.50 0.86099
324.00 0.88790
324.50 0.91139
325.00 0.93479
325.50 0.96014
326.00 0.97914
326.50 0.99712
327.00 1.01595
327.50 1.03154
328.00 1.04287
328.50 1.05533
329.00 1.06961
329.50 1.07939
330.00 1.08769
330.50 1.09601
331.00 1.10490
331.50 1.11418
332.00 1.12105
332.50 1.12741
333.00 1.13466
333.50 1.14195
334.00 1.14929
334.50 1.15649
335.00 1.16289
335.50 1.16883
336.00 1.17481
336.50 1.18083
337.00 1.18689
337.50 1.19159
338.00 1.19377
338.50 1.19599
339.00 1.19824
339.50 1.20063
340.00 1.20230
340.50 1.20307
341.00 1.20393
341.50 1.20487
342.00 1.20620
342.50 1.20747
343.00 1.20868
343.50 1.21041
344.00 1.21219
344.50 1.21438
345.00 1.21696
345.50 1.21976
346.00 1.22249
346.50 1.22527
347.00 1.22806
347.50 1.22992
348.00 1.23172
348.50 1.23375
349.00 1.23560
349.50 1.23531
350.00 1.23508
350.50 1.23385
351.00 1.23199
351.50 1.22949
352.00 1.22858
352.50 1.22781
353.00 1.22693
353.50 1.22583
354.00 1.22494
354.50 1.22487
355.00 1.22491
355.50 1.22578
356.00 1.22684
356.50 1.22774
357.00 1.22858
357.50 1.22986
358.00 1.23131
358.50 1.23286
359.00 1.23371
359.50 1.23469
360.00 1.23576
