phi[deg] B[T]
0.00 1.53747
0.50 1.53691
1.00 1.53646
1.50 1.53612
2.00 1.53591
2.50 1.53562
3.00 1.53546
3.50 1.53542
4.00 1.53550
4.50 1.53572
5.00 1.53605
5.50 1.53663
6.00 1.53764
6.50 1.53877
7.00 1.53969
7.50 1.54046
8.00 1.54134
8.50 1.54235
9.00 1.54382
9.50 1.54651
10.00 1.54846
10.50 1.54973
11.00 1.54983
11.50 1.55002
12.00 1.55030
12.50 1.55066
13.00 1.54989
13.50 1.54867
14.00 1.54722
14.50 1.54506
15.00 1.54300
15.50 1.54102
16.00 1.53914
16.50 1.53747
17.00 1.53607
17.50 1.53506
18.00 1.53230
18.50 1.52903
19.00 1.52582
19.50 1.52268
20.00 1.52005
20.50 1.51860
21.00 1.51720
21.50 1.51033
22.00 1.50221
22.50 1.49413
23.00 1.48608
23.50 1.47876
24.00 1.47349
24.50 1.46089
25.00 1.44609
25.50 1.43278
26.00 1.41949
26.50 1.40624
27.00 1.39302
27.50 1.37833
28.00 1.36245
28.50 1.34656
29.00 1.33050
29.50 1.31448
30.00 1.29852
30.50 1.28260
31.00 1.26700
31.50 1.25265
32.00 1.23870
32.50 1.22171
33.00 1.20415
33.50 1.18661
34.00 1.16908
34.50 1.15156
35.00 1.13421
35.50 1.11752
36.00 1.09776
36.50 1.07634
37.00 1.05570
37.50 1.03554
38.00 1.01541
38.50 0.99421
39.00 0.97306
39.50 0.95205
40.00 0.93133
40.50 0.91101
41.00 0.89084
41.50 0.87118
42.00 0.85179
42.50 0.83246
43.00 0.81422
43.50 0.79604
44.00 0.77831
44.50 0.76113
45.00 0.74414
45.50 0.72848
46.00 0.71261
46.50 0.69777
47.00 0.68397
47.50 0.66971
48.00 0.65708
48.50 0.64471
49.00 0.63159
49.50 0.61918
50.00 0.60757
50.50 0.59795
51.00 0.58868
51.50 0.57592
52.00 0.56310
52.50 0.55024
53.00 0.53691
53.50 0.51996
54.00 0.50482
54.50 0.49060
55.00 0.47624
55.50 0.46172
56.00 0.44550
56.50 0.42796
57.00 0.40748
57.50 0.38683
58.00 0.36602
58.50 0.34407
59.00 0.31715
59.50 0.29010
60.00 0.26785
60.50 0.24690
61.00 0.22585
61.50 0.20471
62.00 0.18082
62.50 0.15620
63.00 0.13902
63.50 0.12325
64.00 0.11077
64.50 0.09829
65.00 0.08581
65.50 0.07393
66.00 0.06598
66.50 0.05802
67.00 0.05004
67.50 0.04400
68.00 0.03809
68.50 0.03327
69.00 0.03002
69.50 0.02676
70.00 0.02351
70.50 0.02024
71.00 0.01716
71.50 0.01524
72.00 0.01371
72.50 0.01222
73.00 0.01072
73.50 0.00923
74.00 0.00777
74.50 0.00698
75.00 0.00618
75.50 0.00540
76.00 0.00471
76.50 0.00404
77.00 0.00359
77.50 0.00323
78.00 0.00288
78.50 0.00253
79.00 0.00219
79.50 0.00186
80.00 0.00167
80.50 0.00149
81.00 0.00130
81.50 0.00116
82.00 0.00103
82.50 0.00090
83.00 0.00080
83.50 0.00071
84.00 0.00062
84.50 0.00056
85.00 0.00051
85.50 0.00045
86.00 0.00040
86.50 0.00036
87.00 0.00033
87.50 0.00030
88.00 0.00027
88.50 0.00026
89.00 0.00024
89.50 0.00023
90.00 0.00022
90.00 0.00022
90.50 0.00023
91.00 0.00024
91.50 0.00026
92.00 0.00027
92.50 0.00030
93.00 0.00033
93.50 0.00036
94.00 0.00040
94.50 0.00045
95.00 0.00051
95.50 0.00056
96.00 0.00062
96.50 0.00071
97.00 0.00080
97.50 0.00090
98.00 0.00103
98.50 0.00116
99.00 0.00130
99.50 0.00149
100.00 0.00167
100.50 0.00186
101.00 0.00219
101.50 0.00253
102.00 0.00288
102.50 0.00323
103.00 0.00359
103.50 0.00404
104.00 0.00471
104.50 0.00540
105.00 0.00618
105.50 0.00698
106.00 0.00777
106.50 0.00923
107.00 0.01072
107.50 0.01222
108.00 0.01371
108.50 0.01524
109.00 0.01716
109.50 0.02024
110.00 0.02351
110.50 0.02676
111.00 0.03002
111.50 0.03327
112.00 0.03809
112.50 0.04400
113.00 0.05004
113.50 0.05802
114.00 0.06598
114.50 0.07393
115.00 0.08581
115.50 0.09829
116.00 0.11077
116.50 0.12325
117.00 0.13902
117.50 0.15620
118.00 0.18082
118.50 0.20471
119.00 0.22585
119.50 0.24690
120.00 0.26785
120.50 0.29010
121.00 0.31715
121.50 0.34407
122.00 0.36602
122.50 0.38683
123.00 0.40748
123.50 0.42796
124.00 0.44550
124.50 0.46172
125.00 0.47624
125.50 0.49060
126.00 0.50482
126.50 0.51996
127.00 0.53691
127.50 0.55024
128.00 0.56310
128.50 0.57592
129.00 0.58868
129.50 0.59795
130.00 0.60757
130.50 0.61918
131.00 0.63159
131.50 0.64471
132.00 0.65708
132.50 0.66971
133.00 0.68397
133.50 0.69777
134.00 0.71261
134.50 0.72848
135.00 0.74414
135.50 0.76113
136.00 0.77831
136.50 0.79604
137.00 0.81422
137.50 0.83246
138.00 0.85179
138.50 0.87118
139.00 0.89084
139.50 0.91101
140.00 0.93133
140.50 0.95205
141.00 0.97306
141.50 0.99421
142.00 1.01541
142.50 1.03554
143.00 1.05570
143.50 1.07634
144.00 1.09776
144.50 1.11752
145.00 1.13421
145.50 1.15156
146.00 1.16908
146.50 1.18661
147.00 1.20415
147.50 1.22171
148.00 1.23870
148.50 1.25265
149.00 1.26700
149.50 1.28260
150.00 1.29852
150.50 1.31448
151.00 1.33050
151.50 1.34656
152.00 1.36245
152.50 1.37833
153.00 1.39302
153.50 1.40624
154.00 1.41949
154.50 1.43278
155.00 1.44609
155.50 1.46089
156.00 1.47349
156.50 1.47876
157.00 1.48608
157.50 1.49413
158.00 1.50221
158.50 1.51033
159.00 1.51720
159.50 1.51860
160.00 1.52005
160.50 1.52268
161.00 1.52582
161.50 1.52903
162.00 1.53230
162.50 1.53506
163.00 1.53607
163.50 1.53747
164.00 1.53914
164.50 1.54102
165.00 1.54300
165.50 1.54506
166.00 1.54722
166.50 1.54867
167.00 1.54989
167.50 1.55066
168.00 1.55030
168.50 1.55002
169.00 1.54983
169.50 1.54973
170.00 1.54846
170.50 1.54651
171.00 1.54382
171.50 1.54235
172.00 1.54134
172.50 1.54046
173.00 1.53969
173.50 1.53877
174.00 1.53764
174.50 1.53663
175.00 1.53605
175.50 1.53572
176.00 1.53550
176.50 1.53542
177.00 1.53546
177.50 1.53562
178.00 1.53591
178.50 1.53612
179.00 1.53646
179.50 1.53691
180.00 1.53747
180.00 1.53747
180.50 1.53691
181.00 1.53646
181.50 1.53612
182.00 1.53591
182.50 1.53562
183.00 1.53546
183.50 1.53542
184.00 1.53550
184.50 1.53572
185.00 1.53605
185.50 1.53663
186.00 1.53764
186.50 1.53877
187.00 1.53969
187.50 1.54046
188.00 1.54134
188.50 1.54235
189.00 1.54382
189.50 1.54651
190.00 1.54846
190.50 1.54973
191.00 1.54983
191.50 1.55002
192.00 1.55030
192.50 1.55066
193.00 1.54989
193.50 1.54867
194.00 1.54722
194.50 1.54506
195.00 1.54300
195.50 1.54102
196.00 1.53914
196.50 1.53747
197.00 1.53607
197.50 1.53506
198.00 1.53230
198.50 1.52903
199.00 1.52582
199.50 1.52268
200.00 1.52005
200.50 1.51860
201.00 1.51720
201.50 1.51033
202.00 1.50221
202.50 1.49413
203.00 1.48608
203.50 1.47876
204.00 1.47349
204.50 1.46089
205.00 1.44609
205.50 1.43278
206.00 1.41949
206.50 1.40624
207.00 1.39302
207.50 1.37833
208.00 1.36245
208.50 1.34656
209.00 1.33050
209.50 1.31448
210.00 1.29852
210.50 1.28260
211.00 1.26700
211.50 1.25265
212.00 1.23870
212.50 1.22171
213.00 1.20415
213.50 1.18661
214.00 1.16908
214.50 1.15156
215.00 1.13421
215.50 1.11752
216.00 1.09776
216.50 1.07634
217.00 1.05570
217.50 1.03554
218.00 1.01541
218.50 0.99421
219.00 0.97306
219.50 0.95205
220.00 0.93133
220.50 0.91101
221.00 0.89084
221.50 0.87118
222.00 0.85179
222.50 0.83246
223.00 0.81422
223.50 0.79604
224.00 0.77831
224.50 0.76113
225.00 0.74414
225.50 0.72848
226.00 0.71261
226.50 0.69777
227.00 0.68397
227.50 0.66971
228.00 0.65708
228.50 0.64471
229.00 0.63159
229.50 0.61918
230.00 0.60757
230.50 0.59795
231.00 0.58868
231.50 0.57592
232.00 0.56310
232.50 0.55024
233.00 0.53691
233.50 0.51996
234.00 0.50482
234.50 0.49060
235.00 0.47624
235.50 0.46172
236.00 0.44550
236.50 0.42796
237.00 0.40748
237.50 0.38683
238.00 0.36602
238.50 0.34407
239.00 0.31715
239.50 0.29010
240.00 0.26785
240.50 0.24690
241.00 0.22585
241.50 0.20471
242.00 0.18082
242.50 0.15620
243.00 0.13902
243.50 0.12325
244.00 0.11077
244.50 0.09829
245.00 0.08581
245.50 0.07393
246.00 0.06598
246.50 0.05802
247.00 0.05004
247.50 0.04400
248.00 0.03809
248.50 0.03327
249.00 0.03002
249.50 0.02676
250.00 0.02351
250.50 0.02024
251.00 0.01716
251.50 0.01524
252.00 0.01371
252.50 0.01222
253.00 0.01072
253.50 0.00923
254.00 0.00777
254.50 0.00698
255.00 0.00618
255.50 0.00540
256.00 0.00471
256.50 0.00404
257.00 0.00359
257.50 0.00323
258.00 0.00288
258.50 0.00253
259.00 0.00219
259.50 0.00186
260.00 0.00167
260.50 0.00149
261.00 0.00130
261.50 0.00116
262.00 0.00103
262.50 0.00090
263.00 0.00080
263.50 0.00071
264.00 0.00062
264.50 0.00056
265.00 0.00051
265.50 0.00045
266.00 0.00040
266.50 0.00036
267.00 0.00033
267.50 0.00030
268.00 0.00027
268.50 0.00026
269.00 0.00024
269.50 0.00023
270.00 0.00022
270.00 0.00022
270.50 0.00023
271.00 0.00024
271.50 0.00026
272.00 0.00027
272.50 0.00030
273.00 0.00033
273.50 0.00036
274.00 0.00040
274.50 0.00045
275.00 0.00051
275.50 0.00056
276.00 0.00062
276.50 0.00071
277.00 0.00080
277.50 0.00090
278.00 0.00103
278.50 0.00116
279.00 0.00130
279.50 0.00149
280.00 0.00167
280.50 0.00186
281.00 0.00219
281.50 0.00253
282.00 0.00288
282.50 0.00323
283.00 0.00359
283.50 0.00404
284.00 0.00471
284.50 0.00540
285.00 0.00618
285.50 0.00698
286.00 0.00777
286.50 0.00923
287.00 0.01072
287.50 0.01222
288.00 0.01371
288.50 0.01524
289.00 0.01716
289.50 0.02024
290.00 0.02351
290.50 0.02676
291.00 0.03002
291.50 0.03327
292.00 0.03809
292.50 0.04400
293.00 0.05004
293.50 0.05802
294.00 0.06598
294.50 0.07393
295.00 0.08581
295.50 0.09829
296.00 0.11077
296.50 0.12325
297.00 0.13902
297.50 0.15620
298.00 0.18082
298.50 0.20471
299.00 0.22585
299.50 0.24690
300.00 0.26785
300.50 0.29010
301.00 0.31715
301.50 0.34407
302.00 0.36602
302.50 0.38683
303.00 0.40748
303.50 0.42796
304.00 0.44550
304.50 0.46172
305.00 0.47624
305.50 0.49060
306.00 0.50482
306.50 0.51996
307.00 0.53691
307.50 0.55024
308.00 0.56310
308.50 0.57592
309.00 0.58868
309.50 0.59795
310.00 0.60757
310.50 0.61918
311.00 0.63159
311.50 0.64471
312.00 0.65708
312.50 0.66971
313.00 0.68397
313.50 0.69777
314.00 0.71261
314.50 0.72848
315.00 0.74414
315.50 0.76113
316.00 0.77831
316.50 0.79604
317.00 0.81422
317.50 0.83246
318.00 0.85179
318.50 0.87118
319.00 0.89084
319.50 0.91101
320.00 0.93133
320.50 0.95205
321.00 0.97306
321.50 0.99421
322.00 1.01541
322.50 1.03554
323.00 1.05570
323.50 1.07634
324.00 1.09776
324.50 1.11752
325.00 1.13421
325.50 1.15156
326.00 1.16908
326.50 1.18661
327.00 1.20415
327.50 1.22171
328.00 1.23870
328.50 1.25265
329.00 1.26700
329.50 1.28260
330.00 1.29852
330.50 1.31448
331.00 1.33050
331.50 1.34656
332.00 1.36245
332.50 1.37833
333.00 1.39302
333.50 1.40624
334.00 1.41949
334.50 1.43278
335.00 1.44609
335.50 1.46089
336.00 1.47349
336.50 1.47876
337.00 1.48608
337.50 1.49413
338.00 1.50221
338.50 1.51033
339.00 1.51720
339.50 1.51860
340.00 1.52005
340.50 1.52268
341.00 1.52582
341.50 1.52903
342.00 1.53230
342.50 1.53506
343.00 1.53607
343.50 1.53747
344.00 1.53914
344.50 1.54102
345.00 1.54300
345.50 1.54506
346.00 1.54722
346.50 1.54867
347.00 1.54989
347.50 1.55066
348.00 1.55030
348.50 1.55002
349.00 1.54983
349.50 1.54973
350.00 1.54846
350.50 1.54651
351.00 1.54382
351.50 1.54235
352.00 1.54134
352.50 1.54046
353.00 1.53969
353.50 1.53877
354.00 1.53764
354.50 1.53663
355.00 1.53605
355.50 1.53572
356.00 1.53550
356.50 1.53542
357.00 1.53546
357.50 1.53562
358.00 1.53591
358.50 1.53612
359.00 1.53646
359.50 1.53691
360.00 1.53747
