phi[deg] B[T]
0.00 1.63442
0.50 1.63398
1.00 1.63365
1.50 1.63359
2.00 1.63385
2.50 1.63373
3.00 1.63330
3.50 1.63290
4.00 1.63261
4.50 1.63243
5.00 1.63281
5.50 1.63254
6.00 1.63145
6.50 1.63045
7.00 1.62954
7.50 1.62874
8.00 1.62858
8.50 1.62904
9.00 1.62791
9.50 1.62662
10.00 1.62441
10.50 1.62227
11.00 1.62021
11.50 1.61825
12.00 1.61667
12.50 1.61512
13.00 1.61095
13.50 1.60685
14.00 1.60281
14.50 1.59884
15.00 1.59572
15.50 1.58976
16.00 1.58381
16.50 1.57788
17.00 1.57196
17.50 1.56606
18.00 1.56059
18.50 1.55493
19.00 1.54616
19.50 1.53464
20.00 1.52309
20.50 1.51150
21.00 1.49988
21.50 1.48823
22.00 1.47655
22.50 1.46755
23.00 1.45633
23.50 1.43985
24.00 1.42116
24.50 1.40236
25.00 1.38346
25.50 1.36445
26.00 1.34535
26.50 1.32627
27.00 1.31035
27.50 1.29134
28.00 1.26714
28.50 1.24032
29.00 1.21334
29.50 1.18618
30.00 1.15885
30.50 1.13135
31.00 1.10396
31.50 1.08178
32.00 1.05378
32.50 1.02131
33.00 0.98772
33.50 0.95391
34.00 0.91987
34.50 0.88561
35.00 0.85112
35.50 0.81692
36.00 0.78351
36.50 0.74920
37.00 0.70782
37.50 0.66622
38.00 0.62439
38.50 0.58667
39.00 0.55119
39.50 0.51536
40.00 0.47893
40.50 0.44237
41.00 0.40570
41.50 0.37092
42.00 0.34176
42.50 0.31246
43.00 0.28311
43.50 0.25785
44.00 0.23504
44.50 0.21219
45.00 0.18986
45.50 0.17393
46.00 0.15762
46.50 0.14130
47.00 0.12647
47.50 0.11458
48.00 0.10279
48.50 0.09271
49.00 0.08394
49.50 0.07535
50.00 0.06779
50.50 0.06235
51.00 0.05692
51.50 0.05149
52.00 0.04608
52.50 0.04091
53.00 0.03574
53.50 0.03277
54.00 0.03001
54.50 0.02758
55.00 0.02515
55.50 0.02274
56.00 0.02032
56.50 0.01791
57.00 0.01550
57.50 0.01411
58.00 0.01274
58.50 0.01136
59.00 0.01038
59.50 0.00953
60.00 0.00868
60.50 0.00783
61.00 0.00698
61.50 0.00621
62.00 0.00553
62.50 0.00486
63.00 0.00451
63.50 0.00416
64.00 0.00381
64.50 0.00345
65.00 0.00310
65.50 0.00274
66.00 0.00240
66.50 0.00224
67.00 0.00207
67.50 0.00191
68.00 0.00174
68.50 0.00158
69.00 0.00141
69.50 0.00125
70.00 0.00114
70.50 0.00107
71.00 0.00100
71.50 0.00092
72.00 0.00085
72.50 0.00078
73.00 0.00070
73.50 0.00063
74.00 0.00060
74.50 0.00056
75.00 0.00053
75.50 0.00049
76.00 0.00046
76.50 0.00042
77.00 0.00039
77.50 0.00037
78.00 0.00034
78.50 0.00033
79.00 0.00031
79.50 0.00029
80.00 0.00027
80.50 0.00026
81.00 0.00024
81.50 0.00022
82.00 0.00021
82.50 0.00019
83.00 0.00018
83.50 0.00017
84.00 0.00015
84.50 0.00014
85.00 0.00013
85.50 0.00011
86.00 0.00010
86.50 0.00009
87.00 0.00008
87.50 0.00006
88.00 0.00005
88.50 0.00005
89.00 0.00004
89.50 0.00004
90.00 0.00004
90.00 0.00004
90.50 0.00004
91.00 0.00004
91.50 0.00005
92.00 0.00005
92.50 0.00006
93.00 0.00008
93.50 0.00009
94.00 0.00010
94.50 0.00011
95.00 0.00013
95.50 0.00014
96.00 0.00015
96.50 0.00017
97.00 0.00018
97.50 0.00019
98.00 0.00021
98.50 0.00022
99.00 0.00024
99.50 0.00026
100.00 0.00027
100.50 0.00029
101.00 0.00031
101.50 0.00033
102.00 0.00034
102.50 0.00037
103.00 0.00039
103.50 0.00042
104.00 0.00046
104.50 0.00049
105.00 0.00053
105.50 0.00056
106.00 0.00060
106.50 0.00063
107.00 0.00070
107.50 0.00078
108.00 0.00085
108.50 0.00092
109.00 0.00100
109.50 0.00107
110.00 0.00114
110.50 0.00125
111.00 0.00141
111.50 0.00158
112.00 0.00174
112.50 0.00191
113.00 0.00207
113.50 0.00224
114.00 0.00240
114.50 0.00274
115.00 0.00310
115.50 0.00345
116.00 0.00381
116.50 0.00416
117.00 0.00451
117.50 0.00486
118.00 0.00553
118.50 0.00621
119.00 0.00698
119.50 0.00783
120.00 0.00868
120.50 0.00953
121.00 0.01038
121.50 0.01136
122.00 0.01274
122.50 0.01411
123.00 0.01550
123.50 0.01791
124.00 0.02032
124.50 0.02274
125.00 0.02515
125.50 0.02758
126.00 0.03001
126.50 0.03277
127.00 0.03574
127.50 0.04091
128.00 0.04608
128.50 0.05149
129.00 0.05692
129.50 0.06235
130.00 0.06779
130.50 0.07535
131.00 0.08394
131.50 0.09271
132.00 0.10279
132.50 0.11458
133.00 0.12647
133.50 0.14130
134.00 0.15762
134.50 0.17393
135.00 0.18986
135.50 0.21219
136.00 0.23504
136.50 0.25785
137.00 0.28311
137.50 0.31246
138.00 0.34176
138.50 0.37092
139.00 0.40570
139.50 0.44237
140.00 0.47893
140.50 0.51536
141.00 0.55119
141.50 0.58667
142.00 0.62439
142.50 0.66622
143.00 0.70782
143.50 0.74920
144.00 0.78351
144.50 0.81692
145.00 0.85112
145.50 0.88561
146.00 0.91987
146.50 0.95391
147.00 0.98772
147.50 1.02131
148.00 1.05378
148.50 1.08178
149.00 1.10396
149.50 1.13135
150.00 1.15885
150.50 1.18618
151.00 1.21334
151.50 1.24032
152.00 1.26714
152.50 1.29134
153.00 1.31035
153.50 1.32627
154.00 1.34535
154.50 1.36445
155.00 1.38346
155.50 1.40236
156.00 1.42116
156.50 1.43985
157.00 1.45633
157.50 1.46755
158.00 1.47655
158.50 1.48823
159.00 1.49988
159.50 1.51150
160.00 1.52309
160.50 1.53464
161.00 1.54616
161.50 1.55493
162.00 1.56059
162.50 1.56606
163.00 1.57196
163.50 1.57788
164.00 1.58381
164.50 1.58976
165.00 1.59572
165.50 1.59884
166.00 1.60281
166.50 1.60685
167.00 1.61095
167.50 1.61512
168.00 1.61667
168.50 1.61825
169.00 1.62021
169.50 1.62227
170.00 1.62441
170.50 1.62662
171.00 1.62791
171.50 1.62904
172.00 1.62858
172.50 1.62874
173.00 1.62954
173.50 1.63045
174.00 1.63145
174.50 1.63254
175.00 1.63281
175.50 1.63243
176.00 1.63261
176.50 1.63290
177.00 1.63330
177.50 1.63373
178.00 1.63385
178.50 1.63359
179.00 1.63365
179.50 1.63398
180.00 1.63442
180.00 1.63442
180.50 1.63398
181.00 1.63365
181.50 1.63359
182.00 1.63385
182.50 1.63373
183.00 1.63330
183.50 1.63290
184.00 1.63261
184.50 1.63243
185.00 1.63281
185.50 1.63254
186.00 1.63145
186.50 1.63045
187.00 1.62954
187.50 1.62874
188.00 1.62858
188.50 1.62904
189.00 1.62791
189.50 1.62662
190.00 1.62441
190.50 1.62227
191.00 1.62021
191.50 1.61825
192.00 1.61667
192.50 1.61512
193.00 1.61095
193.50 1.60685
194.00 1.60281
194.50 1.59884
195.00 1.59572
195.50 1.58976
196.00 1.58381
196.50 1.57788
197.00 1.57196
197.50 1.56606
198.00 1.56059
198.50 1.55493
199.00 1.54616
199.50 1.53464
200.00 1.52309
200.50 1.51150
201.00 1.49988
201.50 1.48823
202.00 1.47655
202.50 1.46755
203.00 1.45633
203.50 1.43985
204.00 1.42116
204.50 1.40236
205.00 1.38346
205.50 1.36445
206.00 1.34535
206.50 1.32627
207.00 1.31035
207.50 1.29134
208.00 1.26714
208.50 1.24032
209.00 1.21334
209.50 1.18618
210.00 1.15885
210.50 1.13135
211.00 1.10396
211.50 1.08178
212.00 1.05378
212.50 1.02131
213.00 0.98772
213.50 0.95391
214.00 0.91987
214.50 0.88561
215.00 0.85112
215.50 0.81692
216.00 0.78351
216.50 0.74920
217.00 0.70782
217.50 0.66622
218.00 0.62439
218.50 0.58667
219.00 0.55119
219.50 0.51536
220.00 0.47893
220.50 0.44237
221.00 0.40570
221.50 0.37092
222.00 0.34176
222.50 0.31246
223.00 0.28311
223.50 0.25785
224.00 0.23504
224.50 0.21219
225.00 0.18986
225.50 0.17393
226.00 0.15762
226.50 0.14130
227.00 0.12647
227.50 0.11458
228.00 0.10279
228.50 0.09271
229.00 0.08394
229.50 0.07535
230.00 0.06779
230.50 0.06235
231.00 0.05692
231.50 0.05149
232.00 0.04608
232.50 0.04091
233.00 0.03574
233.50 0.03277
234.00 0.03001
234.50 0.02758
235.00 0.02515
235.50 0.02274
236.00 0.02032
236.50 0.01791
237.00 0.01550
237.50 0.01411
238.00 0.01274
238.50 0.01136
239.00 0.01038
239.50 0.00953
240.00 0.00868
240.50 0.00783
241.00 0.00698
241.50 0.00621
242.00 0.00553
242.50 0.00486
243.00 0.00451
243.50 0.00416
244.00 0.00381
244.50 0.00345
245.00 0.00310
245.50 0.00274
246.00 0.00240
246.50 0.00224
247.00 0.00207
247.50 0.00191
248.00 0.00174
248.50 0.00158
249.00 0.00141
249.50 0.00125
250.00 0.00114
250.50 0.00107
251.00 0.00100
251.50 0.00092
252.00 0.00085
252.50 0.00078
253.00 0.00070
253.50 0.00063
254.00 0.00060
254.50 0.00056
255.00 0.00053
255.50 0.00049
256.00 0.00046
256.50 0.00042
257.00 0.00039
257.50 0.00037
258.00 0.00034
258.50 0.00033
259.00 0.00031
259.50 0.00029
260.00 0.00027
260.50 0.00026
261.00 0.00024
261.50 0.00022
262.00 0.00021
262.50 0.00019
263.00 0.00018
263.50 0.00017
264.00 0.00015
264.50 0.00014
265.00 0.00013
265.50 0.00011
266.00 0.00010
266.50 0.00009
267.00 0.00008
267.50 0.00006
268.00 0.00005
268.50 0.00005
269.00 0.00004
269.50 0.00004
270.00 0.00004
270.00 0.00004
270.50 0.00004
271.00 0.00004
271.50 0.00005
272.00 0.00005
272.50 0.00006
273.00 0.00008
273.50 0.00009
274.00 0.00010
274.50 0.00011
275.00 0.00013
275.50 0.00014
276.00 0.00015
276.50 0.00017
277.00 0.00018
277.50 0.00019
278.00 0.00021
278.50 0.00022
279.00 0.00024
279.50 0.00026
280.00 0.00027
280.50 0.00029
281.00 0.00031
281.50 0.00033
282.00 0.00034
282.50 0.00037
283.00 0.00039
283.50 0.00042
284.00 0.00046
284.50 0.00049
285.00 0.00053
285.50 0.00056
286.00 0.00060
286.50 0.00063
287.00 0.00070
287.50 0.00078
288.00 0.00085
288.50 0.00092
289.00 0.00100
289.50 0.00107
290.00 0.00114
290.50 0.00125
291.00 0.00141
291.50 0.00158
292.00 0.00174
292.50 0.00191
293.00 0.00207
293.50 0.00224
294.00 0.00240
294.50 0.00274
295.00 0.00310
295.50 0.00345
296.00 0.00381
296.50 0.00416
297.00 0.00451
297.50 0.00486
298.00 0.00553
298.50 0.00621
299.00 0.00698
299.50 0.00783
300.00 0.00868
300.50 0.00953
301.00 0.01038
301.50 0.01136
302.00 0.01274
302.50 0.01411
303.00 0.01550
303.50 0.01791
304.00 0.02032
304.50 0.02274
305.00 0.02515
305.50 0.02758
306.00 0.03001
306.50 0.03277
307.00 0.03574
307.50 0.04091
308.00 0.04608
308.50 0.05149
309.00 0.05692
309.50 0.06235
310.00 0.06779
310.50 0.07535
311.00 0.08394
311.50 0.09271
312.00 0.10279
312.50 0.11458
313.00 0.12647
313.50 0.14130
314.00 0.15762
314.50 0.17393
315.00 0.18986
315.50 0.21219
316.00 0.23504
316.50 0.25785
317.00 0.28311
317.50 0.31246
318.00 0.34176
318.50 0.37092
319.00 0.40570
319.50 0.44237
320.00 0.47893
320.50 0.51536
321.00 0.55119
321.50 0.58667
322.00 0.62439
322.50 0.66622
323.00 0.70782
323.50 0.74920
324.00 0.78351
324.50 0.81692
325.00 0.85112
325.50 0.88561
326.00 0.91987
326.50 0.95391
327.00 0.98772
327.50 1.02131
328.00 1.05378
328.50 1.08178
329.00 1.10396
329.50 1.13135
330.00 1.15885
330.50 1.18618
331.00 1.21334
331.50 1.24032
332.00 1.26714
332.50 1.29134
333.00 1.31035
333.50 1.32627
334.00 1.34535
334.50 1.36445
335.00 1.38346
335.50 1.40236
336.00 1.42116
336.50 1.43985
337.00 1.45633
337.50 1.46755
338.00 1.47655
338.50 1.48823
339.00 1.49988
339.50 1.51150
340.00 1.52309
340.50 1.53464
341.00 1.54616
341.50 1.55493
342.00 1.56059
342.50 1.56606
343.00 1.57196
343.50 1.57788
344.00 1.58381
344.50 1.58976
345.00 1.59572
345.50 1.59884
346.00 1.60281
346.50 1.60685
347.00 1.61095
347.50 1.61512
348.00 1.61667
348.50 1.61825
349.00 1.62021
349.50 1.62227
350.00 1.62441
350.50 1.62662
351.00 1.62791
351.50 1.62904
352.00 1.62858
352.50 1.62874
353.00 1.62954
353.50 1.63045
354.00 1.63145
354.50 1.63254
355.00 1.63281
355.50 1.63243
356.00 1.63261
356.50 1.63290
357.00 1.63330
357.50 1.63373
358.00 1.63385
358.50 1.63359
359.00 1.63365
359.50 1.63398
360.00 1.63442
