phi[deg] B[T]
0.00 1.41598
0.50 1.41447
1.00 1.41341
1.50 1.41132
2.00 1.40691
2.50 1.40243
3.00 1.39791
3.50 1.39092
4.00 1.38384
4.50 1.37667
5.00 1.36770
5.50 1.35803
6.00 1.34597
6.50 1.33380
7.00 1.32121
7.50 1.30850
8.00 1.29039
8.50 1.27191
9.00 1.25332
9.50 1.23728
10.00 1.21736
10.50 1.19626
11.00 1.17499
11.50 1.15349
12.00 1.13144
12.50 1.10618
13.00 1.07796
13.50 1.04956
14.00 1.02099
14.50 0.99221
15.00 0.96281
15.50 0.93318
16.00 0.90332
16.50 0.87149
17.00 0.83750
17.50 0.80059
18.00 0.76345
18.50 0.72608
19.00 0.68850
19.50 0.65348
20.00 0.61889
20.50 0.58412
21.00 0.54917
21.50 0.51126
22.00 0.46944
22.50 0.43378
23.00 0.40166
23.50 0.36944
24.00 0.33681
24.50 0.30537
25.00 0.28290
25.50 0.26040
26.00 0.23787
26.50 0.21532
27.00 0.19274
27.50 0.17012
28.00 0.15396
28.50 0.14035
29.00 0.12829
29.50 0.11623
30.00 0.10419
30.50 0.09228
31.00 0.08274
31.50 0.07320
32.00 0.06696
32.50 0.06166
33.00 0.05636
33.50 0.05123
34.00 0.04614
34.50 0.04107
35.00 0.03599
35.50 0.03155
36.00 0.02895
36.50 0.02635
37.00 0.02374
37.50 0.02150
38.00 0.01950
38.50 0.01751
39.00 0.01553
39.50 0.01369
40.00 0.01240
40.50 0.01117
41.00 0.01022
41.50 0.00928
42.00 0.00833
42.50 0.00738
43.00 0.00664
43.50 0.00607
44.00 0.00550
44.50 0.00493
45.00 0.00436
45.50 0.00401
46.00 0.00366
46.50 0.00331
47.00 0.00296
47.50 0.00261
48.00 0.00241
48.50 0.00221
49.00 0.00201
49.50 0.00181
50.00 0.00162
50.50 0.00146
51.00 0.00133
51.50 0.00121
52.00 0.00113
52.50 0.00104
53.00 0.00095
53.50 0.00087
54.00 0.00078
54.50 0.00071
55.00 0.00067
55.50 0.00063
56.00 0.00060
56.50 0.00057
57.00 0.00053
57.50 0.00050
58.00 0.00046
58.50 0.00043
59.00 0.00042
59.50 0.00040
60.00 0.00039
60.50 0.00037
61.00 0.00035
61.50 0.00034
62.00 0.00032
62.50 0.00031
63.00 0.00030
63.50 0.00030
64.00 0.00029
64.50 0.00028
65.00 0.00027
65.50 0.00027
66.00 0.00026
66.50 0.00025
67.00 0.00024
67.50 0.00024
68.00 0.00023
68.50 0.00023
69.00 0.00022
69.50 0.00022
70.00 0.00021
70.50 0.00021
71.00 0.00020
71.50 0.00019
72.00 0.00019
72.50 0.00018
73.00 0.00018
73.50 0.00017
74.00 0.00017
74.50 0.00016
75.00 0.00016
75.50 0.00015
76.00 0.00015
76.50 0.00014
77.00 0.00014
77.50 0.00013
78.00 0.00013
78.50 0.00012
79.00 0.00012
79.50 0.00011
80.00 0.00011
80.50 0.00010
81.00 0.00010
81.50 0.00009
82.00 0.00009
82.50 0.00008
83.00 0.00008
83.50 0.00007
84.00 0.00006
84.50 0.00006
85.00 0.00006
85.50 0.00005
86.00 0.00005
86.50 0.00004
87.00 0.00003
87.50 0.00003
88.00 0.00003
88.50 0.00002
89.00 0.00002
89.50 0.00002
90.00 0.00002
90.00 0.00002
90.50 0.00002
91.00 0.00002
91.50 0.00002
92.00 0.00003
92.50 0.00003
93.00 0.00003
93.50 0.00004
94.00 0.00005
94.50 0.00005
95.00 0.00006
95.50 0.00006
96.00 0.00006
96.50 0.00007
97.00 0.00008
97.50 0.00008
98.00 0.00009
98.50 0.00009
99.00 0.00010
99.50 0.00010
100.00 0.00011
100.50 0.00011
101.00 0.00012
101.50 0.00012
102.00 0.00013
102.50 0.00013
103.00 0.00014
103.50 0.00014
104.00 0.00015
104.50 0.00015
105.00 0.00016
105.50 0.00016
106.00 0.00017
106.50 0.00017
107.00 0.00018
107.50 0.00018
108.00 0.00019
108.50 0.00019
109.00 0.00020
109.50 0.00021
110.00 0.00021
110.50 0.00022
111.00 0.00022
111.50 0.00023
112.00 0.00023
112.50 0.00024
113.00 0.00024
113.50 0.00025
114.00 0.00026
114.50 0.00027
115.00 0.00027
115.50 0.00028
116.00 0.00029
116.50 0.00030
117.00 0.00030
117.50 0.00031
118.00 0.00032
118.50 0.00034
119.00 0.00035
119.50 0.00037
120.00 0.00039
120.50 0.00040
121.00 0.00042
121.50 0.00043
122.00 0.00046
122.50 0.00050
123.00 0.00053
123.50 0.00057
124.00 0.00060
124.50 0.00063
125.00 0.00067
125.50 0.00071
126.00 0.00078
126.50 0.00087
127.00 0.00095
127.50 0.00104
128.00 0.00113
128.50 0.00121
129.00 0.00133
129.50 0.00146
130.00 0.00162
130.50 0.00181
131.00 0.00201
131.50 0.00221
132.00 0.00241
132.50 0.00261
133.00 0.00296
133.50 0.00331
134.00 0.00366
134.50 0.00401
135.00 0.00436
135.50 0.00493
136.00 0.00550
136.50 0.00607
137.00 0.00664
137.50 0.00738
138.00 0.00833
138.50 0.00928
139.00 0.01022
139.50 0.01117
140.00 0.01240
140.50 0.01369
141.00 0.01553
141.50 0.01751
142.00 0.01950
142.50 0.02150
143.00 0.02374
143.50 0.02635
144.00 0.02895
144.50 0.03155
145.00 0.03599
145.50 0.04107
146.00 0.04614
146.50 0.05123
147.00 0.05636
147.50 0.06166
148.00 0.06696
148.50 0.07320
149.00 0.08274
149.50 0.09228
150.00 0.10419
150.50 0.11623
151.00 0.12829
151.50 0.14035
152.00 0.15396
152.50 0.17012
153.00 0.19274
153.50 0.21532
154.00 0.23787
154.50 0.26040
155.00 0.28290
155.50 0.30537
156.00 0.33681
156.50 0.36944
157.00 0.40166
157.50 0.43378
158.00 0.46944
158.50 0.51126
159.00 0.54917
159.50 0.58412
160.00 0.61889
160.50 0.65348
161.00 0.68850
161.50 0.72608
162.00 0.76345
162.50 0.80059
163.00 0.83750
163.50 0.87149
164.00 0.90332
164.50 0.93318
165.00 0.96281
165.50 0.99221
166.00 1.02099
166.50 1.04956
167.00 1.07796
167.50 1.10618
168.00 1.13144
168.50 1.15349
169.00 1.17499
169.50 1.19626
170.00 1.21736
170.50 1.23728
171.00 1.25332
171.50 1.27191
172.00 1.29039
172.50 1.30850
173.00 1.32121
173.50 1.33380
174.00 1.34597
174.50 1.35803
175.00 1.36770
175.50 1.37667
176.00 1.38384
176.50 1.39092
177.00 1.39791
177.50 1.40243
178.00 1.40691
178.50 1.41132
179.00 1.41341
179.50 1.41447
180.00 1.41598
180.00 1.41598
180.50 1.41447
181.00 1.41341
181.50 1.41132
182.00 1.40691
182.50 1.40243
183.00 1.39791
183.50 1.39092
184.00 1.38384
184.50 1.37667
185.00 1.36770
185.50 1.35803
186.00 1.34597
186.50 1.33380
187.00 1.32121
187.50 1.30850
188.00 1.29039
188.50 1.27191
189.00 1.25332
189.50 1.23728
190.00 1.21736
190.50 1.19626
191.00 1.17499
191.50 1.15349
192.00 1.13144
192.50 1.10618
193.00 1.07796
193.50 1.04956
194.00 1.02099
194.50 0.99221
195.00 0.96281
195.50 0.93318
196.00 0.90332
196.50 0.87149
197.00 0.83750
197.50 0.80059
198.00 0.76345
198.50 0.72608
199.00 0.68850
199.50 0.65348
200.00 0.61889
200.50 0.58412
201.00 0.54917
201.50 0.51126
202.00 0.46944
202.50 0.43378
203.00 0.40166
203.50 0.36944
204.00 0.33681
204.50 0.30537
205.00 0.28290
205.50 0.26040
206.00 0.23787
206.50 0.21532
207.00 0.19274
207.50 0.17012
208.00 0.15396
208.50 0.14035
209.00 0.12829
209.50 0.11623
210.00 0.10419
210.50 0.09228
211.00 0.08274
211.50 0.07320
212.00 0.06696
212.50 0.06166
213.00 0.05636
213.50 0.05123
214.00 0.04614
214.50 0.04107
215.00 0.03599
215.50 0.03155
216.00 0.02895
216.50 0.02635
217.00 0.02374
217.50 0.02150
218.00 0.01950
218.50 0.01751
219.00 0.01553
219.50 0.01369
220.00 0.01240
220.50 0.01117
221.00 0.01022
221.50 0.00928
222.00 0.00833
222.50 0.00738
223.00 0.00664
223.50 0.00607
224.00 0.00550
224.50 0.00493
225.00 0.00436
225.50 0.00401
226.00 0.00366
226.50 0.00331
227.00 0.00296
227.50 0.00261
228.00 0.00241
228.50 0.00221
229.00 0.00201
229.50 0.00181
230.00 0.00162
230.50 0.00146
231.00 0.00133
231.50 0.00121
232.00 0.00113
232.50 0.00104
233.00 0.00095
233.50 0.00087
234.00 0.00078
234.50 0.00071
235.00 0.00067
235.50 0.00063
236.00 0.00060
236.50 0.00057
237.00 0.00053
237.50 0.00050
238.00 0.00046
238.50 0.00043
239.00 0.00042
239.50 0.00040
240.00 0.00039
240.50 0.00037
241.00 0.00035
241.50 0.00034
242.00 0.00032
242.50 0.00031
243.00 0.00030
243.50 0.00030
244.00 0.00029
244.50 0.00028
245.00 0.00027
245.50 0.00027
246.00 0.00026
246.50 0.00025
247.00 0.00024
247.50 0.00024
248.00 0.00023
248.50 0.00023
249.00 0.00022
249.50 0.00022
250.00 0.00021
250.50 0.00021
251.00 0.00020
251.50 0.00019
252.00 0.00019
252.50 0.00018
253.00 0.00018
253.50 0.00017
254.00 0.00017
254.50 0.00016
255.00 0.00016
255.50 0.00015
256.00 0.00015
256.50 0.00014
257.00 0.00014
257.50 0.00013
258.00 0.00013
258.50 0.00012
259.00 0.00012
259.50 0.00011
260.00 0.00011
260.50 0.00010
261.00 0.00010
261.50 0.00009
262.00 0.00009
262.50 0.00008
263.00 0.00008
263.50 0.00007
264.00 0.00006
264.50 0.00006
265.00 0.00006
265.50 0.00005
266.00 0.00005
266.50 0.00004
267.00 0.00003
267.50 0.00003
268.00 0.00003
268.50 0.00002
269.00 0.00002
269.50 0.00002
270.00 0.00002
270.00 0.00002
270.50 0.00002
271.00 0.00002
271.50 0.00002
272.00 0.00003
272.50 0.00003
273.00 0.00003
273.50 0.00004
274.00 0.00005
274.50 0.00005
275.00 0.00006
275.50 0.00006
276.00 0.00006
276.50 0.00007
277.00 0.00008
277.50 0.00008
278.00 0.00009
278.50 0.00009
279.00 0.00010
279.50 0.00010
280.00 0.00011
280.50 0.00011
281.00 0.00012
281.50 0.00012
282.00 0.00013
282.50 0.00013
283.00 0.00014
283.50 0.00014
284.00 0.00015
284.50 0.00015
285.00 0.00016
285.50 0.00016
286.00 0.00017
286.50 0.00017
287.00 0.00018
287.50 0.00018
288.00 0.00019
288.50 0.00019
289.00 0.00020
289.50 0.00021
290.00 0.00021
290.50 0.00022
291.00 0.00022
291.50 0.00023
292.00 0.00023
292.50 0.00024
293.00 0.00024
293.50 0.00025
294.00 0.00026
294.50 0.00027
295.00 0.00027
295.50 0.00028
296.00 0.00029
296.50 0.00030
297.00 0.00030
297.50 0.00031
298.00 0.00032
298.50 0.00034
299.00 0.00035
299.50 0.00037
300.00 0.00039
300.50 0.00040
301.00 0.00042
301.50 0.00043
302.00 0.00046
302.50 0.00050
303.00 0.00053
303.50 0.00057
304.00 0.00060
304.50 0.00063
305.00 0.00067
305.50 0.00071
306.00 0.00078
306.50 0.00087
307.00 0.00095
307.50 0.00104
308.00 0.00113
308.50 0.00121
309.00 0.00133
309.50 0.00146
310.00 0.00162
310.50 0.00181
311.00 0.00201
311.50 0.00221
312.00 0.00241
312.50 0.00261
313.00 0.00296
313.50 0.00331
314.00 0.00366
314.50 0.00401
315.00 0.00436
315.50 0.00493
316.00 0.00550
316.50 0.00607
317.00 0.00664
317.50 0.00738
318.00 0.00833
318.50 0.00928
319.00 0.01022
319.50 0.01117
320.00 0.01240
320.50 0.01369
321.00 0.01553
321.50 0.01751
322.00 0.01950
322.50 0.02150
323.00 0.02374
323.50 0.02635
324.00 0.02895
324.50 0.03155
325.00 0.03599
325.50 0.04107
326.00 0.04614
326.50 0.05123
327.00 0.05636
327.50 0.06166
328.00 0.06696
328.50 0.07320
329.00 0.08274
329.50 0.09228
330.00 0.10419
330.50 0.11623
331.00 0.12829
331.50 0.14035
332.00 0.15396
332.50 0.17012
333.00 0.19274
333.50 0.21532
334.00 0.23787
334.50 0.26040
335.00 0.28290
335.50 0.30537
336.00 0.33681
336.50 0.36944
337.00 0.40166
337.50 0.43378
338.00 0.46944
338.50 0.51126
339.00 0.54917
339.50 0.58412
340.00 0.61889
340.50 0.65348
341.00 0.68850
341.50 0.72608
342.00 0.76345
342.50 0.80059
343.00 0.83750
343.50 0.87149
344.00 0.90332
344.50 0.93318
345.00 0.96281
345.50 0.99221
346.00 1.02099
346.50 1.04956
347.00 1.07796
347.50 1.10618
348.00 1.13144
348.50 1.15349
349.00 1.17499
349.50 1.19626
350.00 1.21736
350.50 1.23728
351.00 1.25332
351.50 1.27191
352.00 1.29039
352.50 1.30850
353.00 1.32121
353.50 1.33380
354.00 1.34597
354.50 1.35803
355.00 1.36770
355.50 1.37667
356.00 1.38384
356.50 1.39092
357.00 1.39791
357.50 1.40243
358.00 1.40691
358.50 1.41132
359.00 1.41341
359.50 1.41447
360.00 1.41598
