phi[deg] B[T]
0.00 1.56352
0.50 1.56375
1.00 1.56410
1.50 1.56459
2.00 1.56520
2.50 1.56594
3.00 1.56708
3.50 1.56846
4.00 1.56995
4.50 1.57156
5.00 1.57330
5.50 1.57533
6.00 1.57776
6.50 1.58031
7.00 1.58298
7.50 1.58454
8.00 1.58576
8.50 1.58745
9.00 1.58950
9.50 1.59165
10.00 1.59390
10.50 1.59586
11.00 1.59498
11.50 1.59419
12.00 1.59484
12.50 1.59565
13.00 1.59653
13.50 1.59720
14.00 1.59549
14.50 1.59386
15.00 1.59231
15.50 1.59012
16.00 1.58695
16.50 1.58385
17.00 1.58074
17.50 1.57676
18.00 1.57285
18.50 1.56900
19.00 1.56522
19.50 1.56150
20.00 1.55682
20.50 1.54944
21.00 1.54242
21.50 1.53547
22.00 1.52856
22.50 1.52169
23.00 1.51486
23.50 1.50808
24.00 1.49624
24.50 1.48402
25.00 1.47166
25.50 1.45898
26.00 1.44633
26.50 1.43371
27.00 1.42112
27.50 1.40855
28.00 1.39233
28.50 1.37557
29.00 1.35883
29.50 1.34299
30.00 1.32838
30.50 1.31377
31.00 1.29916
31.50 1.28352
32.00 1.26582
32.50 1.24814
33.00 1.23046
33.50 1.21144
34.00 1.19172
34.50 1.17200
35.00 1.15228
35.50 1.13256
36.00 1.11284
36.50 1.09312
37.00 1.07193
37.50 1.05035
38.00 1.02877
38.50 1.00720
39.00 0.98589
39.50 0.96516
40.00 0.94457
40.50 0.92400
41.00 0.90344
41.50 0.88287
42.00 0.86302
42.50 0.84392
43.00 0.82484
43.50 0.80665
44.00 0.78864
44.50 0.77064
45.00 0.75204
45.50 0.73450
46.00 0.71788
46.50 0.70126
47.00 0.68491
47.50 0.66979
48.00 0.65467
48.50 0.63832
49.00 0.62187
49.50 0.60727
50.00 0.59265
50.50 0.57800
51.00 0.56267
51.50 0.54551
52.00 0.53078
52.50 0.51598
53.00 0.50112
53.50 0.48627
54.00 0.47231
54.50 0.45830
55.00 0.44423
55.50 0.42746
56.00 0.40998
56.50 0.39242
57.00 0.37508
57.50 0.35766
58.00 0.34018
58.50 0.32263
59.00 0.30501
59.50 0.28921
60.00 0.27355
60.50 0.25783
61.00 0.24129
61.50 0.22424
62.00 0.20715
62.50 0.19003
63.00 0.17495
63.50 0.16181
64.00 0.14863
64.50 0.13542
65.00 0.12340
65.50 0.11331
66.00 0.10421
66.50 0.09620
67.00 0.08819
67.50 0.08016
68.00 0.07212
68.50 0.06637
69.00 0.06166
69.50 0.05696
70.00 0.05226
70.50 0.04759
71.00 0.04327
71.50 0.03895
72.00 0.03463
72.50 0.03141
73.00 0.02929
73.50 0.02716
74.00 0.02504
74.50 0.02294
75.00 0.02085
75.50 0.01875
76.00 0.01666
76.50 0.01522
77.00 0.01408
77.50 0.01295
78.00 0.01181
78.50 0.01077
79.00 0.00988
79.50 0.00899
80.00 0.00811
80.50 0.00746
81.00 0.00689
81.50 0.00631
82.00 0.00578
82.50 0.00536
83.00 0.00495
83.50 0.00453
84.00 0.00416
84.50 0.00387
85.00 0.00358
85.50 0.00341
86.00 0.00324
86.50 0.00307
87.00 0.00290
87.50 0.00274
88.00 0.00264
88.50 0.00257
89.00 0.00250
89.50 0.00243
90.00 0.00235
90.00 0.00235
90.50 0.00243
91.00 0.00250
91.50 0.00257
92.00 0.00264
92.50 0.00274
93.00 0.00290
93.50 0.00307
94.00 0.00324
94.50 0.00341
95.00 0.00358
95.50 0.00387
96.00 0.00416
96.50 0.00453
97.00 0.00495
97.50 0.00536
98.00 0.00578
98.50 0.00631
99.00 0.00689
99.50 0.00746
100.00 0.00811
100.50 0.00899
101.00 0.00988
101.50 0.01077
102.00 0.01181
102.50 0.01295
103.00 0.01408
103.50 0.01522
104.00 0.01666
104.50 0.01875
105.00 0.02085
105.50 0.02294
106.00 0.02504
106.50 0.02716
107.00 0.02929
107.50 0.03141
108.00 0.03463
108.50 0.03895
109.00 0.04327
109.50 0.04759
110.00 0.05226
110.50 0.05696
111.00 0.06166
111.50 0.06637
112.00 0.07212
112.50 0.08016
113.00 0.08819
113.50 0.09620
114.00 0.10421
114.50 0.11331
115.00 0.12340
115.50 0.13542
116.00 0.14863
116.50 0.16181
117.00 0.17495
117.50 0.19003
118.00 0.20715
118.50 0.22424
119.00 0.24129
119.50 0.25783
120.00 0.27355
120.50 0.28921
121.00 0.30501
121.50 0.32263
122.00 0.34018
122.50 0.35766
123.00 0.37508
123.50 0.39242
124.00 0.40998
124.50 0.42746
125.00 0.44423
125.50 0.45830
126.00 0.47231
126.50 0.48627
127.00 0.50112
127.50 0.51598
128.00 0.53078
128.50 0.54551
129.00 0.56267
129.50 0.57800
130.00 0.59265
130.50 0.60727
131.00 0.62187
131.50 0.63832
132.00 0.65467
132.50 0.66979
133.00 0.68491
133.50 0.70126
134.00 0.71788
134.50 0.73450
135.00 0.75204
135.50 0.77064
136.00 0.78864
136.50 0.80665
137.00 0.82484
137.50 0.84392
138.00 0.86302
138.50 0.88287
139.00 0.90344
139.50 0.92400
140.00 0.94457
140.50 0.96516
141.00 0.98589
141.50 1.00720
142.00 1.02877
142.50 1.05035
143.00 1.07193
143.50 1.09312
144.00 1.11284
144.50 1.13256
145.00 1.15228
145.50 1.17200
146.00 1.19172
146.50 1.21144
147.00 1.23046
147.50 1.24814
148.00 1.26582
148.50 1.28352
149.00 1.29916
149.50 1.31377
150.00 1.32838
150.50 1.34299
151.00 1.35883
151.50 1.37557
152.00 1.39233
152.50 1.40855
153.00 1.42112
153.50 1.43371
154.00 1.44633
154.50 1.45898
155.00 1.47166
155.50 1.48402
156.00 1.49624
156.50 1.50808
157.00 1.51486
157.50 1.52169
158.00 1.52856
158.50 1.53547
159.00 1.54242
159.50 1.54944
160.00 1.55682
160.50 1.56150
161.00 1.56522
161.50 1.56900
162.00 1.57285
162.50 1.57676
163.00 1.58074
163.50 1.58385
164.00 1.58695
164.50 1.59012
165.00 1.59231
165.50 1.59386
166.00 1.59549
166.50 1.59720
167.00 1.59653
167.50 1.59565
168.00 1.59484
168.50 1.59419
169.00 1.59498
169.50 1.59586
170.00 1.59390
170.50 1.59165
171.00 1.58950
171.50 1.58745
172.00 1.58576
172.50 1.58454
173.00 1.58298
173.50 1.58031
174.00 1.57776
174.50 1.57533
175.00 1.57330
175.50 1.57156
176.00 1.56995
176.50 1.56846
177.00 1.56708
177.50 1.56594
178.00 1.56520
178.50 1.56459
179.00 1.56410
179.50 1.56375
180.00 1.56352
180.00 1.56352
180.50 1.56375
181.00 1.56410
181.50 1.56459
182.00 1.56520
182.50 1.56594
183.00 1.56708
183.50 1.56846
184.00 1.56995
184.50 1.57156
185.00 1.57330
185.50 1.57533
186.00 1.57776
186.50 1.58031
187.00 1.58298
187.50 1.58454
188.00 1.58576
188.50 1.58745
189.00 1.58950
189.50 1.59165
190.00 1.59390
190.50 1.59586
191.00 1.59498
191.50 1.59419
192.00 1.59484
192.50 1.59565
193.00 1.59653
193.50 1.59720
194.00 1.59549
194.50 1.59386
195.00 1.59231
195.50 1.59012
196.00 1.58695
196.50 1.58385
197.00 1.58074
197.50 1.57676
198.00 1.57285
198.50 1.56900
199.00 1.56522
199.50 1.56150
200.00 1.55682
200.50 1.54944
201.00 1.54242
201.50 1.53547
202.00 1.52856
202.50 1.52169
203.00 1.51486
203.50 1.50808
204.00 1.49624
204.50 1.48402
205.00 1.47166
205.50 1.45898
206.00 1.44633
206.50 1.43371
207.00 1.42112
207.50 1.40855
208.00 1.39233
208.50 1.37557
209.00 1.35883
209.50 1.34299
210.00 1.32838
210.50 1.31377
211.00 1.29916
211.50 1.28352
212.00 1.26582
212.50 1.24814
213.00 1.23046
213.50 1.21144
214.00 1.19172
214.50 1.17200
215.00 1.15228
215.50 1.13256
216.00 1.11284
216.50 1.09312
217.00 1.07193
217.50 1.05035
218.00 1.02877
218.50 1.00720
219.00 0.98589
219.50 0.96516
220.00 0.94457
220.50 0.92400
221.00 0.90344
221.50 0.88287
222.00 0.86302
222.50 0.84392
223.00 0.82484
223.50 0.80665
224.00 0.78864
224.50 0.77064
225.00 0.75204
225.50 0.73450
226.00 0.71788
226.50 0.70126
227.00 0.68491
227.50 0.66979
228.00 0.65467
228.50 0.63832
229.00 0.62187
229.50 0.60727
230.00 0.59265
230.50 0.57800
231.00 0.56267
231.50 0.54551
232.00 0.53078
232.50 0.51598
233.00 0.50112
233.50 0.48627
234.00 0.47231
234.50 0.45830
235.00 0.44423
235.50 0.42746
236.00 0.40998
236.50 0.39242
237.00 0.37508
237.50 0.35766
238.00 0.34018
238.50 0.32263
239.00 0.30501
239.50 0.28921
240.00 0.27355
240.50 0.25783
241.00 0.24129
241.50 0.22424
242.00 0.20715
242.50 0.19003
243.00 0.17495
243.50 0.16181
244.00 0.14863
244.50 0.13542
245.00 0.12340
245.50 0.11331
246.00 0.10421
246.50 0.09620
247.00 0.08819
247.50 0.08016
248.00 0.07212
248.50 0.06637
249.00 0.06166
249.50 0.05696
250.00 0.05226
250.50 0.04759
251.00 0.04327
251.50 0.03895
252.00 0.03463
252.50 0.03141
253.00 0.02929
253.50 0.02716
254.00 0.02504
254.50 0.02294
255.00 0.02085
255.50 0.01875
256.00 0.01666
256.50 0.01522
257.00 0.01408
257.50 0.01295
258.00 0.01181
258.50 0.01077
259.00 0.00988
259.50 0.00899
260.00 0.00811
260.50 0.00746
261.00 0.00689
261.50 0.00631
262.00 0.00578
262.50 0.00536
263.00 0.00495
263.50 0.00453
264.00 0.00416
264.50 0.00387
265.00 0.00358
265.50 0.00341
266.00 0.00324
266.50 0.00307
267.00 0.00290
267.50 0.00274
268.00 0.00264
268.50 0.00257
269.00 0.00250
269.50 0.00243
270.00 0.00235
270.00 0.00235
270.50 0.00243
271.00 0.00250
271.50 0.00257
272.00 0.00264
272.50 0.00274
273.00 0.00290
273.50 0.00307
274.00 0.00324
274.50 0.00341
275.00 0.00358
275.50 0.00387
276.00 0.00416
276.50 0.00453
277.00 0.00495
277.50 0.00536
278.00 0.00578
278.50 0.00631
279.00 0.00689
279.50 0.00746
280.00 0.00811
280.50 0.00899
281.00 0.00988
281.50 0.01077
282.00 0.01181
282.50 0.01295
283.00 0.01408
283.50 0.01522
284.00 0.01666
284.50 0.01875
285.00 0.02085
285.50 0.02294
286.00 0.02504
286.50 0.02716
287.00 0.02929
287.50 0.03141
288.00 0.03463
288.50 0.03895
289.00 0.04327
289.50 0.04759
290.00 0.05226
290.50 0.05696
291.00 0.06166
291.50 0.06637
292.00 0.07212
292.50 0.08016
293.00 0.08819
293.50 0.09620
294.00 0.10421
294.50 0.11331
295.00 0.12340
295.50 0.13542
296.00 0.14863
296.50 0.16181
297.00 0.17495
297.50 0.19003
298.00 0.20715
298.50 0.22424
299.00 0.24129
299.50 0.25783
300.00 0.27355
300.50 0.28921
301.00 0.30501
301.50 0.32263
302.00 0.34018
302.50 0.35766
303.00 0.37508
303.50 0.39242
304.00 0.40998
304.50 0.42746
305.00 0.44423
305.50 0.45830
306.00 0.47231
306.50 0.48627
307.00 0.50112
307.50 0.51598
308.00 0.53078
308.50 0.54551
309.00 0.56267
309.50 0.57800
310.00 0.59265
310.50 0.60727
311.00 0.62187
311.50 0.63832
312.00 0.65467
312.50 0.66979
313.00 0.68491
313.50 0.70126
314.00 0.71788
314.50 0.73450
315.00 0.75204
315.50 0.77064
316.00 0.78864
316.50 0.80665
317.00 0.82484
317.50 0.84392
318.00 0.86302
318.50 0.88287
319.00 0.90344
319.50 0.92400
320.00 0.94457
320.50 0.96516
321.00 0.98589
321.50 1.00720
322.00 1.02877
322.50 1.05035
323.00 1.07193
323.50 1.09312
324.00 1.11284
324.50 1.13256
325.00 1.15228
325.50 1.17200
326.00 1.19172
326.50 1.21144
327.00 1.23046
327.50 1.24814
328.00 1.26582
328.50 1.28352
329.00 1.29916
329.50 1.31377
330.00 1.32838
330.50 1.34299
331.00 1.35883
331.50 1.37557
332.00 1.39233
332.50 1.40855
333.00 1.42112
333.50 1.43371
334.00 1.44633
334.50 1.45898
335.00 1.47166
335.50 1.48402
336.00 1.49624
336.50 1.50808
337.00 1.51486
337.50 1.52169
338.00 1.52856
338.50 1.53547
339.00 1.54242
339.50 1.54944
340.00 1.55682
340.50 1.56150
341.00 1.56522
341.50 1.56900
342.00 1.57285
342.50 1.57676
343.00 1.58074
343.50 1.58385
344.00 1.58695
344.50 1.59012
345.00 1.59231
345.50 1.59386
346.00 1.59549
346.50 1.59720
347.00 1.59653
347.50 1.59565
348.00 1.59484
348.50 1.59419
349.00 1.59498
349.50 1.59586
350.00 1.59390
350.50 1.59165
351.00 1.58950
351.50 1.58745
352.00 1.58576
352.50 1.58454
353.00 1.58298
353.50 1.58031
354.00 1.57776
354.50 1.57533
355.00 1.57330
355.50 1.57156
356.00 1.56995
356.50 1.56846
357.00 1.56708
357.50 1.56594
358.00 1.56520
358.50 1.56459
359.00 1.56410
359.50 1.56375
360.00 1.56352
