phi[deg] B[T]
0.00 1.96932
0.50 1.96862
1.00 1.96804
1.50 1.96759
2.00 1.96727
2.50 1.96725
3.00 1.96637
3.50 1.96610
4.00 1.96596
4.50 1.96593
5.00 1.96603
5.50 1.96624
6.00 1.96602
6.50 1.96592
7.00 1.96594
7.50 1.96472
8.00 1.96348
8.50 1.96247
9.00 1.96172
9.50 1.96108
10.00 1.96055
10.50 1.95758
11.00 1.95386
11.50 1.95048
12.00 1.94733
12.50 1.94428
13.00 1.94133
13.50 1.93829
14.00 1.93418
14.50 1.92921
15.00 1.92180
15.50 1.91494
16.00 1.90949
16.50 1.90411
17.00 1.89881
17.50 1.89268
18.00 1.88387
18.50 1.87512
19.00 1.86665
19.50 1.86005
20.00 1.85350
20.50 1.84565
21.00 1.83578
21.50 1.82595
22.00 1.81512
22.50 1.80302
23.00 1.79096
23.50 1.77892
24.00 1.76483
24.50 1.75028
25.00 1.73578
25.50 1.72117
26.00 1.70404
26.50 1.68779
27.00 1.67184
27.50 1.65591
28.00 1.63899
28.50 1.62079
29.00 1.60255
29.50 1.58392
30.00 1.56531
30.50 1.54672
31.00 1.52608
31.50 1.50435
32.00 1.48507
32.50 1.46579
33.00 1.44651
33.50 1.42586
34.00 1.40342
34.50 1.38098
35.00 1.35771
35.50 1.33354
36.00 1.30936
36.50 1.28519
37.00 1.26076
37.50 1.23572
38.00 1.21108
38.50 1.18645
39.00 1.16182
39.50 1.13706
40.00 1.11225
40.50 1.08835
41.00 1.06445
41.50 1.04055
42.00 1.01653
42.50 0.99340
43.00 0.97090
43.50 0.94853
44.00 0.92655
44.50 0.90457
45.00 0.88239
45.50 0.86122
46.00 0.84052
46.50 0.81980
47.00 0.79989
47.50 0.78065
48.00 0.76041
48.50 0.73943
49.00 0.72055
49.50 0.70197
50.00 0.68306
50.50 0.66304
51.00 0.64515
51.50 0.62721
52.00 0.60922
52.50 0.59107
53.00 0.57018
53.50 0.55095
54.00 0.53246
54.50 0.51389
55.00 0.49527
55.50 0.47638
56.00 0.45571
56.50 0.43702
57.00 0.41825
57.50 0.39941
58.00 0.38054
58.50 0.36238
59.00 0.34414
59.50 0.32407
60.00 0.30392
60.50 0.28372
61.00 0.26346
61.50 0.24360
62.00 0.22882
62.50 0.21419
63.00 0.19952
63.50 0.18479
64.00 0.17002
64.50 0.15453
65.00 0.14436
65.50 0.13438
66.00 0.12439
66.50 0.11435
67.00 0.10420
67.50 0.09404
68.00 0.08595
68.50 0.08035
69.00 0.07475
69.50 0.06914
70.00 0.06343
70.50 0.05770
71.00 0.05198
71.50 0.04660
72.00 0.04327
72.50 0.04016
73.00 0.03706
73.50 0.03396
74.00 0.03086
74.50 0.02776
75.00 0.02554
75.50 0.02382
76.00 0.02211
76.50 0.02040
77.00 0.01869
77.50 0.01692
78.00 0.01514
78.50 0.01399
79.00 0.01308
79.50 0.01216
80.00 0.01125
80.50 0.01033
81.00 0.00942
81.50 0.00852
82.00 0.00789
82.50 0.00736
83.00 0.00686
83.50 0.00637
84.00 0.00587
84.50 0.00543
85.00 0.00517
85.50 0.00490
86.00 0.00464
86.50 0.00437
87.00 0.00410
87.50 0.00400
88.00 0.00390
88.50 0.00379
89.00 0.00368
89.50 0.00357
90.00 0.00346
90.00 0.00346
90.50 0.00357
91.00 0.00368
91.50 0.00379
92.00 0.00390
92.50 0.00400
93.00 0.00410
93.50 0.00437
94.00 0.00464
94.50 0.00490
95.00 0.00517
95.50 0.00543
96.00 0.00587
96.50 0.00637
97.00 0.00686
97.50 0.00736
98.00 0.00789
98.50 0.00852
99.00 0.00942
99.50 0.01033
100.00 0.01125
100.50 0.01216
101.00 0.01308
101.50 0.01399
102.00 0.01514
102.50 0.01692
103.00 0.01869
103.50 0.02040
104.00 0.02211
104.50 0.02382
105.00 0.02554
105.50 0.02776
106.00 0.03086
106.50 0.03396
107.00 0.03706
107.50 0.04016
108.00 0.04327
108.50 0.04660
109.00 0.05198
109.50 0.05770
110.00 0.06343
110.50 0.06914
111.00 0.07475
111.50 0.08035
112.00 0.08595
112.50 0.09404
113.00 0.10420
113.50 0.11435
114.00 0.12439
114.50 0.13438
115.00 0.14436
115.50 0.15453
116.00 0.17002
116.50 0.18479
117.00 0.19952
117.50 0.21419
118.00 0.22882
118.50 0.24360
119.00 0.26346
119.50 0.28372
120.00 0.30392
120.50 0.32407
121.00 0.34414
121.50 0.36238
122.00 0.38054
122.50 0.39941
123.00 0.41825
123.50 0.43702
124.00 0.45571
124.50 0.47638
125.00 0.49527
125.50 0.51389
126.00 0.53246
126.50 0.55095
127.00 0.57018
127.50 0.59107
128.00 0.60922
128.50 0.62721
129.00 0.64515
129.50 0.66304
130.00 0.68306
130.50 0.70197
131.00 0.72055
131.50 0.73943
132.00 0.76041
132.50 0.78065
133.00 0.79989
133.50 0.81980
134.00 0.84052
134.50 0.86122
135.00 0.88239
135.50 0.90457
136.00 0.92655
136.50 0.94853
137.00 0.97090
137.50 0.99340
138.00 1.01653
138.50 1.04055
139.00 1.06445
139.50 1.08835
140.00 1.11225
140.50 1.13706
141.00 1.16182
141.50 1.18645
142.00 1.21108
142.50 1.23572
143.00 1.26076
143.50 1.28519
144.00 1.30936
144.50 1.33354
145.00 1.35771
145.50 1.38098
146.00 1.40342
146.50 1.42586
147.00 1.44651
147.50 1.46579
148.00 1.48507
148.50 1.50435
149.00 1.52608
149.50 1.54672
150.00 1.56531
150.50 1.58392
151.00 1.60255
151.50 1.62079
152.00 1.63899
152.50 1.65591
153.00 1.67184
153.50 1.68779
154.00 1.70404
154.50 1.72117
155.00 1.73578
155.50 1.75028
156.00 1.76483
156.50 1.77892
157.00 1.79096
157.50 1.80302
158.00 1.81512
158.50 1.82595
159.00 1.83578
159.50 1.84565
160.00 1.85350
160.50 1.86005
161.00 1.86665
161.50 1.87512
162.00 1.88387
162.50 1.89268
163.00 1.89881
163.50 1.90411
164.00 1.90949
164.50 1.91494
165.00 1.92180
165.50 1.92921
166.00 1.93418
166.50 1.93829
167.00 1.94133
167.50 1.94428
168.00 1.94733
168.50 1.95048
169.00 1.95386
169.50 1.95758
170.00 1.96055
170.50 1.96108
171.00 1.96172
171.50 1.96247
172.00 1.96348
172.50 1.96472
173.00 1.96594
173.50 1.96592
174.00 1.96602
174.50 1.96624
175.00 1.96603
175.50 1.96593
176.00 1.96596
176.50 1.96610
177.00 1.96637
177.50 1.96725
178.00 1.96727
178.50 1.96759
179.00 1.96804
179.50 1.96862
180.00 1.96932
180.00 1.96932
180.50 1.96862
181.00 1.96804
181.50 1.96759
182.00 1.96727
182.50 1.96725
183.00 1.96637
183.50 1.96610
184.00 1.96596
184.50 1.96593
185.00 1.96603
185.50 1.96624
186.00 1.96602
186.50 1.96592
187.00 1.96594
187.50 1.96472
188.00 1.96348
188.50 1.96247
189.00 1.96172
189.50 1.96108
190.00 1.96055
190.50 1.95758
191.00 1.95386
191.50 1.95048
192.00 1.94733
192.50 1.94428
193.00 1.94133
193.50 1.93829
194.00 1.93418
194.50 1.92921
195.00 1.92180
195.50 1.91494
196.00 1.90949
196.50 1.90411
197.00 1.89881
197.50 1.89268
198.00 1.88387
198.50 1.87512
199.00 1.86665
199.50 1.86005
200.00 1.85350
200.50 1.84565
201.00 1.83578
201.50 1.82595
202.00 1.81512
202.50 1.80302
203.00 1.79096
203.50 1.77892
204.00 1.76483
204.50 1.75028
205.00 1.73578
205.50 1.72117
206.00 1.70404
206.50 1.68779
207.00 1.67184
207.50 1.65591
208.00 1.63899
208.50 1.62079
209.00 1.60255
209.50 1.58392
210.00 1.56531
210.50 1.54672
211.00 1.52608
211.50 1.50435
212.00 1.48507
212.50 1.46579
213.00 1.44651
213.50 1.42586
214.00 1.40342
214.50 1.38098
215.00 1.35771
215.50 1.33354
216.00 1.30936
216.50 1.28519
217.00 1.26076
217.50 1.23572
218.00 1.21108
218.50 1.18645
219.00 1.16182
219.50 1.13706
220.00 1.11225
220.50 1.08835
221.00 1.06445
221.50 1.04055
222.00 1.01653
222.50 0.99340
223.00 0.97090
223.50 0.94853
224.00 0.92655
224.50 0.90457
225.00 0.88239
225.50 0.86122
226.00 0.84052
226.50 0.81980
227.00 0.79989
227.50 0.78065
228.00 0.76041
228.50 0.73943
229.00 0.72055
229.50 0.70197
230.00 0.68306
230.50 0.66304
231.00 0.64515
231.50 0.62721
232.00 0.60922
232.50 0.59107
233.00 0.57018
233.50 0.55095
234.00 0.53246
234.50 0.51389
235.00 0.49527
235.50 0.47638
236.00 0.45571
236.50 0.43702
237.00 0.41825
237.50 0.39941
238.00 0.38054
238.50 0.36238
239.00 0.34414
239.50 0.32407
240.00 0.30392
240.50 0.28372
241.00 0.26346
241.50 0.24360
242.00 0.22882
242.50 0.21419
243.00 0.19952
243.50 0.18479
244.00 0.17002
244.50 0.15453
245.00 0.14436
245.50 0.13438
246.00 0.12439
246.50 0.11435
247.00 0.10420
247.50 0.09404
248.00 0.08595
248.50 0.08035
249.00 0.07475
249.50 0.06914
250.00 0.06343
250.50 0.05770
251.00 0.05198
251.50 0.04660
252.00 0.04327
252.50 0.04016
253.00 0.03706
253.50 0.03396
254.00 0.03086
254.50 0.02776
255.00 0.02554
255.50 0.02382
256.00 0.02211
256.50 0.02040
257.00 0.01869
257.50 0.01692
258.00 0.01514
258.50 0.01399
259.00 0.01308
259.50 0.01216
260.00 0.01125
260.50 0.01033
261.00 0.00942
261.50 0.00852
262.00 0.00789
262.50 0.00736
263.00 0.00686
263.50 0.00637
264.00 0.00587
264.50 0.00543
265.00 0.00517
265.50 0.00490
266.00 0.00464
266.50 0.00437
267.00 0.00410
267.50 0.00400
268.00 0.00390
268.50 0.00379
269.00 0.00368
269.50 0.00357
270.00 0.00346
270.00 0.00346
270.50 0.00357
271.00 0.00368
271.50 0.00379
272.00 0.00390
272.50 0.00400
273.00 0.00410
273.50 0.00437
274.00 0.00464
274.50 0.00490
275.00 0.00517
275.50 0.00543
276.00 0.00587
276.50 0.00637
277.00 0.00686
277.50 0.00736
278.00 0.00789
278.50 0.00852
279.00 0.00942
279.50 0.01033
280.00 0.01125
280.50 0.01216
281.00 0.01308
281.50 0.01399
282.00 0.01514
282.50 0.01692
283.00 0.01869
283.50 0.02040
284.00 0.02211
284.50 0.02382
285.00 0.02554
285.50 0.02776
286.00 0.03086
286.50 0.03396
287.00 0.03706
287.50 0.04016
288.00 0.04327
288.50 0.04660
289.00 0.05198
289.50 0.05770
290.00 0.06343
290.50 0.06914
291.00 0.07475
291.50 0.08035
292.00 0.08595
292.50 0.09404
293.00 0.10420
293.50 0.11435
294.00 0.12439
294.50 0.13438
295.00 0.14436
295.50 0.15453
296.00 0.17002
296.50 0.18479
297.00 0.19952
297.50 0.21419
298.00 0.22882
298.50 0.24360
299.00 0.26346
299.50 0.28372
300.00 0.30392
300.50 0.32407
301.00 0.34414
301.50 0.36238
302.00 0.38054
302.50 0.39941
303.00 0.41825
303.50 0.43702
304.00 0.45571
304.50 0.47638
305.00 0.49527
305.50 0.51389
306.00 0.53246
306.50 0.55095
307.00 0.57018
307.50 0.59107
308.00 0.60922
308.50 0.62721
309.00 0.64515
309.50 0.66304
310.00 0.68306
310.50 0.70197
311.00 0.72055
311.50 0.73943
312.00 0.76041
312.50 0.78065
313.00 0.79989
313.50 0.81980
314.00 0.84052
314.50 0.86122
315.00 0.88239
315.50 0.90457
316.00 0.92655
316.50 0.94853
317.00 0.97090
317.50 0.99340
318.00 1.01653
318.50 1.04055
319.00 1.06445
319.50 1.08835
320.00 1.11225
320.50 1.13706
321.00 1.16182
321.50 1.18645
322.00 1.21108
322.50 1.23572
323.00 1.26076
323.50 1.28519
324.00 1.30936
324.50 1.33354
325.00 1.35771
325.50 1.38098
326.00 1.40342
326.50 1.42586
327.00 1.44651
327.50 1.46579
328.00 1.48507
328.50 1.50435
329.00 1.52608
329.50 1.54672
330.00 1.56531
330.50 1.58392
331.00 1.60255
331.50 1.62079
332.00 1.63899
332.50 1.65591
333.00 1.67184
333.50 1.68779
334.00 1.70404
334.50 1.72117
335.00 1.73578
335.50 1.75028
336.00 1.76483
336.50 1.77892
337.00 1.79096
337.50 1.80302
338.00 1.81512
338.50 1.82595
339.00 1.83578
339.50 1.84565
340.00 1.85350
340.50 1.86005
341.00 1.86665
341.50 1.87512
342.00 1.88387
342.50 1.89268
343.00 1.89881
343.50 1.90411
344.00 1.90949
344.50 1.91494
345.00 1.92180
345.50 1.92921
346.00 1.93418
346.50 1.93829
347.00 1.94133
347.50 1.94428
348.00 1.94733
348.50 1.95048
349.00 1.95386
349.50 1.95758
350.00 1.96055
350.50 1.96108
351.00 1.96172
351.50 1.96247
352.00 1.96348
352.50 1.96472
353.00 1.96594
353.50 1.96592
354.00 1.96602
354.50 1.96624
355.00 1.96603
355.50 1.96593
356.00 1.96596
356.50 1.96610
357.00 1.96637
357.50 1.96725
358.00 1.96727
358.50 1.96759
359.00 1.96804
359.50 1.96862
360.00 1.96932
