phi[deg] B[T]
0.00 1.13294
0.50 1.13246
1.00 1.13206
1.50 1.13173
2.00 1.13148
2.50 1.13119
3.00 1.13087
3.50 1.13062
4.00 1.13044
4.50 1.13034
5.00 1.12935
5.50 1.12834
6.00 1.12741
6.50 1.12654
7.00 1.12603
7.50 1.12572
8.00 1.12488
8.50 1.12359
9.00 1.12201
9.50 1.12049
10.00 1.11904
10.50 1.11766
11.00 1.11634
11.50 1.11509
12.00 1.11397
12.50 1.11323
13.00 1.11197
13.50 1.10941
14.00 1.10690
14.50 1.10445
15.00 1.10205
15.50 1.09970
16.00 1.09741
16.50 1.09517
17.00 1.09299
17.50 1.09086
18.00 1.08771
18.50 1.08340
19.00 1.07910
19.50 1.07482
20.00 1.07056
20.50 1.06632
21.00 1.06210
21.50 1.05790
22.00 1.05346
22.50 1.04822
23.00 1.03992
23.50 1.03158
24.00 1.02303
24.50 1.01451
25.00 1.00600
25.50 0.99751
26.00 0.98903
26.50 0.97992
27.00 0.97059
27.50 0.95947
28.00 0.94840
28.50 0.93758
29.00 0.92679
29.50 0.91602
30.00 0.90529
30.50 0.89459
31.00 0.88362
31.50 0.87282
32.00 0.86272
32.50 0.85238
33.00 0.84141
33.50 0.83048
34.00 0.81957
34.50 0.80907
35.00 0.80026
35.50 0.79132
36.00 0.78236
36.50 0.77328
37.00 0.76295
37.50 0.75262
38.00 0.74237
38.50 0.73223
39.00 0.72210
39.50 0.71197
40.00 0.70212
40.50 0.69154
41.00 0.68091
41.50 0.67024
42.00 0.65933
42.50 0.64811
43.00 0.63683
43.50 0.62504
44.00 0.61104
44.50 0.59698
45.00 0.58467
45.50 0.57040
46.00 0.55570
46.50 0.54090
47.00 0.52382
47.50 0.50623
48.00 0.48941
48.50 0.47189
49.00 0.45312
49.50 0.43421
50.00 0.41475
50.50 0.39562
51.00 0.37635
51.50 0.35697
52.00 0.33703
52.50 0.31683
53.00 0.29317
53.50 0.26915
54.00 0.24908
54.50 0.23283
55.00 0.21655
55.50 0.20024
56.00 0.18390
56.50 0.16753
57.00 0.15079
57.50 0.13401
58.00 0.11722
58.50 0.10795
59.00 0.09912
59.50 0.09028
60.00 0.08179
60.50 0.07437
61.00 0.06694
61.50 0.05953
62.00 0.05211
62.50 0.04724
63.00 0.04330
63.50 0.03934
64.00 0.03539
64.50 0.03142
65.00 0.02818
65.50 0.02511
66.00 0.02204
66.50 0.02028
67.00 0.01870
67.50 0.01712
68.00 0.01553
68.50 0.01395
69.00 0.01237
69.50 0.01084
70.00 0.00972
70.50 0.00896
71.00 0.00825
71.50 0.00755
72.00 0.00684
72.50 0.00613
73.00 0.00542
73.50 0.00471
74.00 0.00431
74.50 0.00394
75.00 0.00357
75.50 0.00320
76.00 0.00289
76.50 0.00258
77.00 0.00228
77.50 0.00211
78.00 0.00195
78.50 0.00179
79.00 0.00164
79.50 0.00149
80.00 0.00134
80.50 0.00118
81.00 0.00106
81.50 0.00098
82.00 0.00090
82.50 0.00083
83.00 0.00075
83.50 0.00069
84.00 0.00063
84.50 0.00057
85.00 0.00054
85.50 0.00051
86.00 0.00048
86.50 0.00046
87.00 0.00043
87.50 0.00040
88.00 0.00039
88.50 0.00038
89.00 0.00037
89.50 0.00036
90.00 0.00035
90.00 0.00035
90.50 0.00036
91.00 0.00037
91.50 0.00038
92.00 0.00039
92.50 0.00040
93.00 0.00043
93.50 0.00046
94.00 0.00048
94.50 0.00051
95.00 0.00054
95.50 0.00057
96.00 0.00063
96.50 0.00069
97.00 0.00075
97.50 0.00083
98.00 0.00090
98.50 0.00098
99.00 0.00106
99.50 0.00118
100.00 0.00134
100.50 0.00149
101.00 0.00164
101.50 0.00179
102.00 0.00195
102.50 0.00211
103.00 0.00228
103.50 0.00258
104.00 0.00289
104.50 0.00320
105.00 0.00357
105.50 0.00394
106.00 0.00431
106.50 0.00471
107.00 0.00542
107.50 0.00613
108.00 0.00684
108.50 0.00755
109.00 0.00825
109.50 0.00896
110.00 0.00972
110.50 0.01084
111.00 0.01237
111.50 0.01395
112.00 0.01553
112.50 0.01712
113.00 0.01870
113.50 0.02028
114.00 0.02204
114.50 0.02511
115.00 0.02818
115.50 0.03142
116.00 0.03539
116.50 0.03934
117.00 0.04330
117.50 0.04724
118.00 0.05211
118.50 0.05953
119.00 0.06694
119.50 0.07437
120.00 0.08179
120.50 0.09028
121.00 0.09912
121.50 0.10795
122.00 0.11722
122.50 0.13401
123.00 0.15079
123.50 0.16753
124.00 0.18390
124.50 0.20024
125.00 0.21655
125.50 0.23283
126.00 0.24908
126.50 0.26915
127.00 0.29317
127.50 0.31683
128.00 0.33703
128.50 0.35697
129.00 0.37635
129.50 0.39562
130.00 0.41475
130.50 0.43421
131.00 0.45312
131.50 0.47189
132.00 0.48941
132.50 0.50623
133.00 0.52382
133.50 0.54090
134.00 0.55570
134.50 0.57040
135.00 0.58467
135.50 0.59698
136.00 0.61104
136.50 0.62504
137.00 0.63683
137.50 0.64811
138.00 0.65933
138.50 0.67024
139.00 0.68091
139.50 0.69154
140.00 0.70212
140.50 0.71197
141.00 0.72210
141.50 0.73223
142.00 0.74237
142.50 0.75262
143.00 0.76295
143.50 0.77328
144.00 0.78236
144.50 0.79132
145.00 0.80026
145.50 0.80907
146.00 0.81957
146.50 0.83048
147.00 0.84141
147.50 0.85238
148.00 0.86272
148.50 0.87282
149.00 0.88362
149.50 0.89459
150.00 0.90529
150.50 0.91602
151.00 0.92679
151.50 0.93758
152.00 0.94840
152.50 0.95947
153.00 0.97059
153.50 0.97992
154.00 0.98903
154.50 0.99751
155.00 1.00600
155.50 1.01451
156.00 1.02303
156.50 1.03158
157.00 1.03992
157.50 1.04822
158.00 1.05346
158.50 1.05790
159.00 1.06210
159.50 1.06632
160.00 1.07056
160.50 1.07482
161.00 1.07910
161.50 1.08340
162.00 1.08771
162.50 1.09086
163.00 1.09299
163.50 1.09517
164.00 1.09741
164.50 1.09970
165.00 1.10205
165.50 1.10445
166.00 1.10690
166.50 1.10941
167.00 1.11197
167.50 1.11323
168.00 1.11397
168.50 1.11509
169.00 1.11634
169.50 1.11766
170.00 1.11904
170.50 1.12049
171.00 1.12201
171.50 1.12359
172.00 1.12488
172.50 1.12572
173.00 1.12603
173.50 1.12654
174.00 1.12741
174.50 1.12834
175.00 1.12935
175.50 1.13034
176.00 1.13044
176.50 1.13062
177.00 1.13087
177.50 1.13119
178.00 1.13148
178.50 1.13173
179.00 1.13206
179.50 1.13246
180.00 1.13294
180.00 1.13294
180.50 1.13246
181.00 1.13206
181.50 1.13173
182.00 1.13148
182.50 1.13119
183.00 1.13087
183.50 1.13062
184.00 1.13044
184.50 1.13034
185.00 1.12935
185.50 1.12834
186.00 1.12741
186.50 1.12654
187.00 1.12603
187.50 1.12572
188.00 1.12488
188.50 1.12359
189.00 1.12201
189.50 1.12049
190.00 1.11904
190.50 1.11766
191.00 1.11634
191.50 1.11509
192.00 1.11397
192.50 1.11323
193.00 1.11197
193.50 1.10941
194.00 1.10690
194.50 1.10445
195.00 1.10205
195.50 1.09970
196.00 1.09741
196.50 1.09517
197.00 1.09299
197.50 1.09086
198.00 1.08771
198.50 1.08340
199.00 1.07910
199.50 1.07482
200.00 1.07056
200.50 1.06632
201.00 1.06210
201.50 1.05790
202.00 1.05346
202.50 1.04822
203.00 1.03992
203.50 1.03158
204.00 1.02303
204.50 1.01451
205.00 1.00600
205.50 0.99751
206.00 0.98903
206.50 0.97992
207.00 0.97059
207.50 0.95947
208.00 0.94840
208.50 0.93758
209.00 0.92679
209.50 0.91602
210.00 0.90529
210.50 0.89459
211.00 0.88362
211.50 0.87282
212.00 0.86272
212.50 0.85238
213.00 0.84141
213.50 0.83048
214.00 0.81957
214.50 0.80907
215.00 0.80026
215.50 0.79132
216.00 0.78236
216.50 0.77328
217.00 0.76295
217.50 0.75262
218.00 0.74237
218.50 0.73223
219.00 0.72210
219.50 0.71197
220.00 0.70212
220.50 0.69154
221.00 0.68091
221.50 0.67024
222.00 0.65933
222.50 0.64811
223.00 0.63683
223.50 0.62504
224.00 0.61104
224.50 0.59698
225.00 0.58467
225.50 0.57040
226.00 0.55570
226.50 0.54090
227.00 0.52382
227.50 0.50623
228.00 0.48941
228.50 0.47189
229.00 0.45312
229.50 0.43421
230.00 0.41475
230.50 0.39562
231.00 0.37635
231.50 0.35697
232.00 0.33703
232.50 0.31683
233.00 0.29317
233.50 0.26915
234.00 0.24908
234.50 0.23283
235.00 0.21655
235.50 0.20024
236.00 0.18390
236.50 0.16753
237.00 0.15079
237.50 0.13401
238.00 0.11722
238.50 0.10795
239.00 0.09912
239.50 0.09028
240.00 0.08179
240.50 0.07437
241.00 0.06694
241.50 0.05953
242.00 0.05211
242.50 0.04724
243.00 0.04330
243.50 0.03934
244.00 0.03539
244.50 0.03142
245.00 0.02818
245.50 0.02511
246.00 0.02204
246.50 0.02028
247.00 0.01870
247.50 0.01712
248.00 0.01553
248.50 0.01395
249.00 0.01237
249.50 0.01084
250.00 0.00972
250.50 0.00896
251.00 0.00825
251.50 0.00755
252.00 0.00684
252.50 0.00613
253.00 0.00542
253.50 0.00471
254.00 0.00431
254.50 0.00394
255.00 0.00357
255.50 0.00320
256.00 0.00289
256.50 0.00258
257.00 0.00228
257.50 0.00211
258.00 0.00195
258.50 0.00179
259.00 0.00164
259.50 0.00149
260.00 0.00134
260.50 0.00118
261.00 0.00106
261.50 0.00098
262.00 0.00090
262.50 0.00083
263.00 0.00075
263.50 0.00069
264.00 0.00063
264.50 0.00057
265.00 0.00054
265.50 0.00051
266.00 0.00048
266.50 0.00046
267.00 0.00043
267.50 0.00040
268.00 0.00039
268.50 0.00038
269.00 0.00037
269.50 0.00036
270.00 0.00035
270.00 0.00035
270.50 0.00036
271.00 0.00037
271.50 0.00038
272.00 0.00039
272.50 0.00040
273.00 0.00043
273.50 0.00046
274.00 0.00048
274.50 0.00051
275.00 0.00054
275.50 0.00057
276.00 0.00063
276.50 0.00069
277.00 0.00075
277.50 0.00083
278.00 0.00090
278.50 0.00098
279.00 0.00106
279.50 0.00118
280.00 0.00134
280.50 0.00149
281.00 0.00164
281.50 0.00179
282.00 0.00195
282.50 0.00211
283.00 0.00228
283.50 0.00258
284.00 0.00289
284.50 0.00320
285.00 0.00357
285.50 0.00394
286.00 0.00431
286.50 0.00471
287.00 0.00542
287.50 0.00613
288.00 0.00684
288.50 0.00755
289.00 0.00825
289.50 0.00896
290.00 0.00972
290.50 0.01084
291.00 0.01237
291.50 0.01395
292.00 0.01553
292.50 0.01712
293.00 0.01870
293.50 0.02028
294.00 0.02204
294.50 0.02511
295.00 0.02818
295.50 0.03142
296.00 0.03539
296.50 0.03934
297.00 0.04330
297.50 0.04724
298.00 0.05211
298.50 0.05953
299.00 0.06694
299.50 0.07437
300.00 0.08179
300.50 0.09028
301.00 0.09912
301.50 0.10795
302.00 0.11722
302.50 0.13401
303.00 0.15079
303.50 0.16753
304.00 0.18390
304.50 0.20024
305.00 0.21655
305.50 0.23283
306.00 0.24908
306.50 0.26915
307.00 0.29317
307.50 0.31683
308.00 0.33703
308.50 0.35697
309.00 0.37635
309.50 0.39562
310.00 0.41475
310.50 0.43421
311.00 0.45312
311.50 0.47189
312.00 0.48941
312.50 0.50623
313.00 0.52382
313.50 0.54090
314.00 0.55570
314.50 0.57040
315.00 0.58467
315.50 0.59698
316.00 0.61104
316.50 0.62504
317.00 0.63683
317.50 0.64811
318.00 0.65933
318.50 0.67024
319.00 0.68091
319.50 0.69154
320.00 0.70212
320.50 0.71197
321.00 0.72210
321.50 0.73223
322.00 0.74237
322.50 0.75262
323.00 0.76295
323.50 0.77328
324.00 0.78236
324.50 0.79132
325.00 0.80026
325.50 0.80907
326.00 0.81957
326.50 0.83048
327.00 0.84141
327.50 0.85238
328.00 0.86272
328.50 0.87282
329.00 0.88362
329.50 0.89459
330.00 0.90529
330.50 0.91602
331.00 0.92679
331.50 0.93758
332.00 0.94840
332.50 0.95947
333.00 0.97059
333.50 0.97992
334.00 0.98903
334.50 0.99751
335.00 1.00600
335.50 1.01451
336.00 1.02303
336.50 1.03158
337.00 1.03992
337.50 1.04822
338.00 1.05346
338.50 1.05790
339.00 1.06210
339.50 1.06632
340.00 1.07056
340.50 1.07482
341.00 1.07910
341.50 1.08340
342.00 1.08771
342.50 1.09086
343.00 1.09299
343.50 1.09517
344.00 1.09741
344.50 1.09970
345.00 1.10205
345.50 1.10445
346.00 1.10690
346.50 1.10941
347.00 1.11197
347.50 1.11323
348.00 1.11397
348.50 1.11509
349.00 1.11634
349.50 1.11766
350.00 1.11904
350.50 1.12049
351.00 1.12201
351.50 1.12359
352.00 1.12488
352.50 1.12572
353.00 1.12603
353.50 1.12654
354.00 1.12741
354.50 1.12834
355.00 1.12935
355.50 1.13034
356.00 1.13044
356.50 1.13062
357.00 1.13087
357.50 1.13119
358.00 1.13148
358.50 1.13173
359.00 1.13206
359.50 1.13246
360.00 1.13294
