phi[deg] B[T]
0.00 1.25980
0.50 1.25898
1.00 1.25824
1.50 1.25761
2.00 1.25663
2.50 1.25586
3.00 1.25520
3.50 1.25405
4.00 1.25305
4.50 1.25289
5.00 1.25283
5.50 1.25333
6.00 1.25401
6.50 1.25476
7.00 1.25553
7.50 1.25639
8.00 1.25872
8.50 1.26116
9.00 1.26362
9.50 1.26448
10.00 1.26543
10.50 1.26681
11.00 1.26840
11.50 1.27008
12.00 1.27000
12.50 1.26934
13.00 1.26806
13.50 1.26565
14.00 1.26332
14.50 1.26107
15.00 1.25889
15.50 1.25679
16.00 1.25459
16.50 1.25212
17.00 1.25039
17.50 1.24938
18.00 1.24768
18.50 1.24556
19.00 1.24352
19.50 1.24246
20.00 1.24212
20.50 1.24184
21.00 1.23910
21.50 1.23500
22.00 1.23095
22.50 1.22699
23.00 1.22306
23.50 1.21803
24.00 1.20965
24.50 1.20129
25.00 1.18970
25.50 1.17742
26.00 1.16519
26.50 1.15337
27.00 1.14165
27.50 1.12963
28.00 1.11695
28.50 1.10432
29.00 1.09178
29.50 1.07934
30.00 1.06695
30.50 1.05609
31.00 1.04554
31.50 1.03464
32.00 1.02160
32.50 1.00860
33.00 0.99565
33.50 0.98498
34.00 0.97419
34.50 0.96074
35.00 0.94542
35.50 0.93003
36.00 0.91464
36.50 0.89857
37.00 0.88007
37.50 0.86159
38.00 0.84349
38.50 0.82542
39.00 0.80737
39.50 0.78878
40.00 0.77010
40.50 0.75196
41.00 0.73458
41.50 0.71726
42.00 0.70022
42.50 0.68373
43.00 0.66730
43.50 0.65166
44.00 0.63608
44.50 0.62152
45.00 0.60686
45.50 0.59363
46.00 0.58044
46.50 0.56943
47.00 0.55845
47.50 0.54924
48.00 0.54044
48.50 0.53280
49.00 0.52558
49.50 0.51839
50.00 0.51521
50.50 0.51224
51.00 0.50741
51.50 0.49869
52.00 0.48993
52.50 0.48332
53.00 0.47928
53.50 0.47118
54.00 0.46211
54.50 0.44934
55.00 0.43526
55.50 0.42105
56.00 0.40673
56.50 0.39229
57.00 0.37571
57.50 0.35486
58.00 0.33384
58.50 0.30905
59.00 0.28263
59.50 0.25608
60.00 0.23401
60.50 0.21266
61.00 0.19043
61.50 0.16633
62.00 0.14215
62.50 0.12121
63.00 0.10771
63.50 0.09419
64.00 0.08150
64.50 0.06906
65.00 0.05660
65.50 0.04935
66.00 0.04319
66.50 0.03704
67.00 0.03121
67.50 0.02550
68.00 0.02236
68.50 0.01953
69.00 0.01690
69.50 0.01427
70.00 0.01165
70.50 0.01018
71.00 0.00883
71.50 0.00747
72.00 0.00642
72.50 0.00541
73.00 0.00461
73.50 0.00403
74.00 0.00345
74.50 0.00292
75.00 0.00252
75.50 0.00214
76.00 0.00189
76.50 0.00165
77.00 0.00141
77.50 0.00121
78.00 0.00105
78.50 0.00095
79.00 0.00085
79.50 0.00074
80.00 0.00065
80.50 0.00060
81.00 0.00054
81.50 0.00049
82.00 0.00043
82.50 0.00039
83.00 0.00036
83.50 0.00033
84.00 0.00030
84.50 0.00027
85.00 0.00024
85.50 0.00022
86.00 0.00019
86.50 0.00017
87.00 0.00015
87.50 0.00012
88.00 0.00010
88.50 0.00008
89.00 0.00007
89.50 0.00006
90.00 0.00005
90.00 0.00005
90.50 0.00006
91.00 0.00007
91.50 0.00008
92.00 0.00010
92.50 0.00012
93.00 0.00015
93.50 0.00017
94.00 0.00019
94.50 0.00022
95.00 0.00024
95.50 0.00027
96.00 0.00030
96.50 0.00033
97.00 0.00036
97.50 0.00039
98.00 0.00043
98.50 0.00049
99.00 0.00054
99.50 0.00060
100.00 0.00065
100.50 0.00074
101.00 0.00085
101.50 0.00095
102.00 0.00105
102.50 0.00121
103.00 0.00141
103.50 0.00165
104.00 0.00189
104.50 0.00214
105.00 0.00252
105.50 0.00292
106.00 0.00345
106.50 0.00403
107.00 0.00461
107.50 0.00541
108.00 0.00642
108.50 0.00747
109.00 0.00883
109.50 0.01018
110.00 0.01165
110.50 0.01427
111.00 0.01690
111.50 0.01953
112.00 0.02236
112.50 0.02550
113.00 0.03121
113.50 0.03704
114.00 0.04319
114.50 0.04935
115.00 0.05660
115.50 0.06906
116.00 0.08150
116.50 0.09419
117.00 0.10771
117.50 0.12121
118.00 0.14215
118.50 0.16633
119.00 0.19043
119.50 0.21266
120.00 0.23401
120.50 0.25608
121.00 0.28263
121.50 0.30905
122.00 0.33384
122.50 0.35486
123.00 0.37571
123.50 0.39229
124.00 0.40673
124.50 0.42105
125.00 0.43526
125.50 0.44934
126.00 0.46211
126.50 0.47118
127.00 0.47928
127.50 0.48332
128.00 0.48993
128.50 0.49869
129.00 0.50741
129.50 0.51224
130.00 0.51521
130.50 0.51839
131.00 0.52558
131.50 0.53280
132.00 0.54044
132.50 0.54924
133.00 0.55845
133.50 0.56943
134.00 0.58044
134.50 0.59363
135.00 0.60686
135.50 0.62152
136.00 0.63608
136.50 0.65166
137.00 0.66730
137.50 0.68373
138.00 0.70022
138.50 0.71726
139.00 0.73458
139.50 0.75196
140.00 0.77010
140.50 0.78878
141.00 0.80737
141.50 0.82542
142.00 0.84349
142.50 0.86159
143.00 0.88007
143.50 0.89857
144.00 0.91464
144.50 0.93003
145.00 0.94542
145.50 0.96074
146.00 0.97419
146.50 0.98498
147.00 0.99565
147.50 1.00860
148.00 1.02160
148.50 1.03464
149.00 1.04554
149.50 1.05609
150.00 1.06695
150.50 1.07934
151.00 1.09178
151.50 1.10432
152.00 1.11695
152.50 1.12963
153.00 1.14165
153.50 1.15337
154.00 1.16519
154.50 1.17742
155.00 1.18970
155.50 1.20129
156.00 1.20965
156.50 1.21803
157.00 1.22306
157.50 1.22699
158.00 1.23095
158.50 1.23500
159.00 1.23910
159.50 1.24184
160.00 1.24212
160.50 1.24246
161.00 1.24352
161.50 1.24556
162.00 1.24768
162.50 1.24938
163.00 1.25039
163.50 1.25212
164.00 1.25459
164.50 1.25679
165.00 1.25889
165.50 1.26107
166.00 1.26332
166.50 1.26565
167.00 1.26806
167.50 1.26934
168.00 1.27000
168.50 1.27008
169.00 1.26840
169.50 1.26681
170.00 1.26543
170.50 1.26448
171.00 1.26362
171.50 1.26116
172.00 1.25872
172.50 1.25639
173.00 1.25553
173.50 1.25476
174.00 1.25401
174.50 1.25333
175.00 1.25283
175.50 1.25289
176.00 1.25305
176.50 1.25405
177.00 1.25520
177.50 1.25586
178.00 1.25663
178.50 1.25761
179.00 1.25824
179.50 1.25898
180.00 1.25980
180.00 1.25980
180.50 1.25898
181.00 1.25824
181.50 1.25761
182.00 1.25663
182.50 1.25586
183.00 1.25520
183.50 1.25405
184.00 1.25305
184.50 1.25289
185.00 1.25283
185.50 1.25333
186.00 1.25401
186.50 1.25476
187.00 1.25553
187.50 1.25639
188.00 1.25872
188.50 1.26116
189.00 1.26362
189.50 1.26448
190.00 1.26543
190.50 1.26681
191.00 1.26840
191.50 1.27008
192.00 1.27000
192.50 1.26934
193.00 1.26806
193.50 1.26565
194.00 1.26332
194.50 1.26107
195.00 1.25889
195.50 1.25679
196.00 1.25459
196.50 1.25212
197.00 1.25039
197.50 1.24938
198.00 1.24768
198.50 1.24556
199.00 1.24352
199.50 1.24246
200.00 1.24212
200.50 1.24184
201.00 1.23910
201.50 1.23500
202.00 1.23095
202.50 1.22699
203.00 1.22306
203.50 1.21803
204.00 1.20965
204.50 1.20129
205.00 1.18970
205.50 1.17742
206.00 1.16519
206.50 1.15337
207.00 1.14165
207.50 1.12963
208.00 1.11695
208.50 1.10432
209.00 1.09178
209.50 1.07934
210.00 1.06695
210.50 1.05609
211.00 1.04554
211.50 1.03464
212.00 1.02160
212.50 1.00860
213.00 0.99565
213.50 0.98498
214.00 0.97419
214.50 0.96074
215.00 0.94542
215.50 0.93003
216.00 0.91464
216.50 0.89857
217.00 0.88007
217.50 0.86159
218.00 0.84349
218.50 0.82542
219.00 0.80737
219.50 0.78878
220.00 0.77010
220.50 0.75196
221.00 0.73458
221.50 0.71726
222.00 0.70022
222.50 0.68373
223.00 0.66730
223.50 0.65166
224.00 0.63608
224.50 0.62152
225.00 0.60686
225.50 0.59363
226.00 0.58044
226.50 0.56943
227.00 0.55845
227.50 0.54924
228.00 0.54044
228.50 0.53280
229.00 0.52558
229.50 0.51839
230.00 0.51521
230.50 0.51224
231.00 0.50741
231.50 0.49869
232.00 0.48993
232.50 0.48332
233.00 0.47928
233.50 0.47118
234.00 0.46211
234.50 0.44934
235.00 0.43526
235.50 0.42105
236.00 0.40673
236.50 0.39229
237.00 0.37571
237.50 0.35486
238.00 0.33384
238.50 0.30905
239.00 0.28263
239.50 0.25608
240.00 0.23401
240.50 0.21266
241.00 0.19043
241.50 0.16633
242.00 0.14215
242.50 0.12121
243.00 0.10771
243.50 0.09419
244.00 0.08150
244.50 0.06906
245.00 0.05660
245.50 0.04935
246.00 0.04319
246.50 0.03704
247.00 0.03121
247.50 0.02550
248.00 0.02236
248.50 0.01953
249.00 0.01690
249.50 0.01427
250.00 0.01165
250.50 0.01018
251.00 0.00883
251.50 0.00747
252.00 0.00642
252.50 0.00541
253.00 0.00461
253.50 0.00403
254.00 0.00345
254.50 0.00292
255.00 0.00252
255.50 0.00214
256.00 0.00189
256.50 0.00165
257.00 0.00141
257.50 0.00121
258.00 0.00105
258.50 0.00095
259.00 0.00085
259.50 0.00074
260.00 0.00065
260.50 0.00060
261.00 0.00054
261.50 0.00049
262.00 0.00043
262.50 0.00039
263.00 0.00036
263.50 0.00033
264.00 0.00030
264.50 0.00027
265.00 0.00024
265.50 0.00022
266.00 0.00019
266.50 0.00017
267.00 0.00015
267.50 0.00012
268.00 0.00010
268.50 0.00008
269.00 0.00007
269.50 0.00006
270.00 0.00005
270.00 0.00005
270.50 0.00006
271.00 0.00007
271.50 0.00008
272.00 0.00010
272.50 0.00012
273.00 0.00015
273.50 0.00017
274.00 0.00019
274.50 0.00022
275.00 0.00024
275.50 0.00027
276.00 0.00030
276.50 0.00033
277.00 0.00036
277.50 0.00039
278.00 0.00043
278.50 0.00049
279.00 0.00054
279.50 0.00060
280.00 0.00065
280.50 0.00074
281.00 0.00085
281.50 0.00095
282.00 0.00105
282.50 0.00121
283.00 0.00141
283.50 0.00165
284.00 0.00189
284.50 0.00214
285.00 0.00252
285.50 0.00292
286.00 0.00345
286.50 0.00403
287.00 0.00461
287.50 0.00541
288.00 0.00642
288.50 0.00747
289.00 0.00883
289.50 0.01018
290.00 0.01165
290.50 0.01427
291.00 0.01690
291.50 0.01953
292.00 0.02236
292.50 0.02550
293.00 0.03121
293.50 0.03704
294.00 0.04319
294.50 0.04935
295.00 0.05660
295.50 0.06906
296.00 0.08150
296.50 0.09419
297.00 0.10771
297.50 0.12121
298.00 0.14215
298.50 0.16633
299.00 0.19043
299.50 0.21266
300.00 0.23401
300.50 0.25608
301.00 0.28263
301.50 0.30905
302.00 0.33384
302.50 0.35486
303.00 0.37571
303.50 0.39229
304.00 0.40673
304.50 0.42105
305.00 0.43526
305.50 0.44934
306.00 0.46211
306.50 0.47118
307.00 0.47928
307.50 0.48332
308.00 0.48993
308.50 0.49869
309.00 0.50741
309.50 0.51224
310.00 0.51521
310.50 0.51839
311.00 0.52558
311.50 0.53280
312.00 0.54044
312.50 0.54924
313.00 0.55845
313.50 0.56943
314.00 0.58044
314.50 0.59363
315.00 0.60686
315.50 0.62152
316.00 0.63608
316.50 0.65166
317.00 0.66730
317.50 0.68373
318.00 0.70022
318.50 0.71726
319.00 0.73458
319.50 0.75196
320.00 0.77010
320.50 0.78878
321.00 0.80737
321.50 0.82542
322.00 0.84349
322.50 0.86159
323.00 0.88007
323.50 0.89857
324.00 0.91464
324.50 0.93003
325.00 0.94542
325.50 0.96074
326.00 0.97419
326.50 0.98498
327.00 0.99565
327.50 1.00860
328.00 1.02160
328.50 1.03464
329.00 1.04554
329.50 1.05609
330.00 1.06695
330.50 1.07934
331.00 1.09178
331.50 1.10432
332.00 1.11695
332.50 1.12963
333.00 1.14165
333.50 1.15337
334.00 1.16519
334.50 1.17742
335.00 1.18970
335.50 1.20129
336.00 1.20965
336.50 1.21803
337.00 1.22306
337.50 1.22699
338.00 1.23095
338.50 1.23500
339.00 1.23910
339.50 1.24184
340.00 1.24212
340.50 1.24246
341.00 1.24352
341.50 1.24556
342.00 1.24768
342.50 1.24938
343.00 1.25039
343.50 1.25212
344.00 1.25459
344.50 1.25679
345.00 1.25889
345.50 1.26107
346.00 1.26332
346.50 1.26565
347.00 1.26806
347.50 1.26934
348.00 1.27000
348.50 1.27008
349.00 1.26840
349.50 1.26681
350.00 1.26543
350.50 1.26448
351.00 1.26362
351.50 1.26116
352.00 1.25872
352.50 1.25639
353.00 1.25553
353.50 1.25476
354.00 1.25401
354.50 1.25333
355.00 1.25283
355.50 1.25289
356.00 1.25305
356.50 1.25405
357.00 1.25520
357.50 1.25586
358.00 1.25663
358.50 1.25761
359.00 1.25824
359.50 1.25898
360.00 1.25980
