phi[deg] B[T]
0.00 1.58249
0.50 1.58079
1.00 1.57963
1.50 1.57892
2.00 1.57786
2.50 1.57475
3.00 1.57159
3.50 1.56802
4.00 1.56361
4.50 1.55894
5.00 1.55429
5.50 1.54754
6.00 1.54048
6.50 1.53401
7.00 1.52733
7.50 1.51771
8.00 1.50808
8.50 1.49844
9.00 1.48837
9.50 1.47479
10.00 1.46086
10.50 1.44888
11.00 1.43682
11.50 1.42470
12.00 1.41161
12.50 1.39437
13.00 1.37588
13.50 1.35731
14.00 1.33874
14.50 1.31877
15.00 1.29682
15.50 1.27619
16.00 1.25541
16.50 1.23460
17.00 1.21260
17.50 1.18563
18.00 1.15851
18.50 1.13162
19.00 1.10521
19.50 1.07354
20.00 1.03935
20.50 1.01075
21.00 0.98192
21.50 0.95283
22.00 0.92297
22.50 0.88794
23.00 0.85069
23.50 0.81320
24.00 0.77546
24.50 0.73822
25.00 0.70337
25.50 0.66857
26.00 0.63353
26.50 0.59825
27.00 0.56274
27.50 0.51801
28.00 0.47610
28.50 0.43815
29.00 0.40522
29.50 0.37608
30.00 0.34689
30.50 0.31764
31.00 0.28880
31.50 0.26235
32.00 0.23585
32.50 0.20930
33.00 0.19122
33.50 0.17530
34.00 0.15937
34.50 0.14377
35.00 0.12831
35.50 0.11285
36.00 0.10304
36.50 0.09382
37.00 0.08544
37.50 0.07790
38.00 0.07037
38.50 0.06284
39.00 0.05532
39.50 0.04912
40.00 0.04407
40.50 0.03988
41.00 0.03641
41.50 0.03294
42.00 0.02948
42.50 0.02602
43.00 0.02363
43.50 0.02156
44.00 0.01950
44.50 0.01743
45.00 0.01537
45.50 0.01411
46.00 0.01286
46.50 0.01161
47.00 0.01035
47.50 0.00911
48.00 0.00837
48.50 0.00766
49.00 0.00695
49.50 0.00624
50.00 0.00553
50.50 0.00496
51.00 0.00446
51.50 0.00405
52.00 0.00373
52.50 0.00341
53.00 0.00309
53.50 0.00277
54.00 0.00246
54.50 0.00217
55.00 0.00202
55.50 0.00188
56.00 0.00174
56.50 0.00160
57.00 0.00146
57.50 0.00132
58.00 0.00118
58.50 0.00106
59.00 0.00100
59.50 0.00094
60.00 0.00088
60.50 0.00082
61.00 0.00076
61.50 0.00069
62.00 0.00063
62.50 0.00059
63.00 0.00056
63.50 0.00054
64.00 0.00052
64.50 0.00049
65.00 0.00047
65.50 0.00044
66.00 0.00042
66.50 0.00040
67.00 0.00039
67.50 0.00037
68.00 0.00036
68.50 0.00035
69.00 0.00034
69.50 0.00032
70.00 0.00031
70.50 0.00031
71.00 0.00030
71.50 0.00029
72.00 0.00028
72.50 0.00027
73.00 0.00026
73.50 0.00025
74.00 0.00024
74.50 0.00024
75.00 0.00023
75.50 0.00022
76.00 0.00021
76.50 0.00021
77.00 0.00020
77.50 0.00019
78.00 0.00018
78.50 0.00018
79.00 0.00017
79.50 0.00016
80.00 0.00015
80.50 0.00015
81.00 0.00014
81.50 0.00013
82.00 0.00012
82.50 0.00012
83.00 0.00011
83.50 0.00010
84.00 0.00009
84.50 0.00009
85.00 0.00008
85.50 0.00007
86.00 0.00006
86.50 0.00006
87.00 0.00005
87.50 0.00004
88.00 0.00004
88.50 0.00003
89.00 0.00003
89.50 0.00003
90.00 0.00002
90.00 0.00002
90.50 0.00003
91.00 0.00003
91.50 0.00003
92.00 0.00004
92.50 0.00004
93.00 0.00005
93.50 0.00006
94.00 0.00006
94.50 0.00007
95.00 0.00008
95.50 0.00009
96.00 0.00009
96.50 0.00010
97.00 0.00011
97.50 0.00012
98.00 0.00012
98.50 0.00013
99.00 0.00014
99.50 0.00015
100.00 0.00015
100.50 0.00016
101.00 0.00017
101.50 0.00018
102.00 0.00018
102.50 0.00019
103.00 0.00020
103.50 0.00021
104.00 0.00021
104.50 0.00022
105.00 0.00023
105.50 0.00024
106.00 0.00024
106.50 0.00025
107.00 0.00026
107.50 0.00027
108.00 0.00028
108.50 0.00029
109.00 0.00030
109.50 0.00031
110.00 0.00031
110.50 0.00032
111.00 0.00034
111.50 0.00035
112.00 0.00036
112.50 0.00037
113.00 0.00039
113.50 0.00040
114.00 0.00042
114.50 0.00044
115.00 0.00047
115.50 0.00049
116.00 0.00052
116.50 0.00054
117.00 0.00056
117.50 0.00059
118.00 0.00063
118.50 0.00069
119.00 0.00076
119.50 0.00082
120.00 0.00088
120.50 0.00094
121.00 0.00100
121.50 0.00106
122.00 0.00118
122.50 0.00132
123.00 0.00146
123.50 0.00160
124.00 0.00174
124.50 0.00188
125.00 0.00202
125.50 0.00217
126.00 0.00246
126.50 0.00277
127.00 0.00309
127.50 0.00341
128.00 0.00373
128.50 0.00405
129.00 0.00446
129.50 0.00496
130.00 0.00553
130.50 0.00624
131.00 0.00695
131.50 0.00766
132.00 0.00837
132.50 0.00911
133.00 0.01035
133.50 0.01161
134.00 0.01286
134.50 0.01411
135.00 0.01537
135.50 0.01743
136.00 0.01950
136.50 0.02156
137.00 0.02363
137.50 0.02602
138.00 0.02948
138.50 0.03294
139.00 0.03641
139.50 0.03988
140.00 0.04407
140.50 0.04912
141.00 0.05532
141.50 0.06284
142.00 0.07037
142.50 0.07790
143.00 0.08544
143.50 0.09382
144.00 0.10304
144.50 0.11285
145.00 0.12831
145.50 0.14377
146.00 0.15937
146.50 0.17530
147.00 0.19122
147.50 0.20930
148.00 0.23585
148.50 0.26235
149.00 0.28880
149.50 0.31764
150.00 0.34689
150.50 0.37608
151.00 0.40522
151.50 0.43815
152.00 0.47610
152.50 0.51801
153.00 0.56274
153.50 0.59825
154.00 0.63353
154.50 0.66857
155.00 0.70337
155.50 0.73822
156.00 0.77546
156.50 0.81320
157.00 0.85069
157.50 0.88794
158.00 0.92297
158.50 0.95283
159.00 0.98192
159.50 1.01075
160.00 1.03935
160.50 1.07354
161.00 1.10521
161.50 1.13162
162.00 1.15851
162.50 1.18563
163.00 1.21260
163.50 1.23460
164.00 1.25541
164.50 1.27619
165.00 1.29682
165.50 1.31877
166.00 1.33874
166.50 1.35731
167.00 1.37588
167.50 1.39437
168.00 1.41161
168.50 1.42470
169.00 1.43682
169.50 1.44888
170.00 1.46086
170.50 1.47479
171.00 1.48837
171.50 1.49844
172.00 1.50808
172.50 1.51771
173.00 1.52733
173.50 1.53401
174.00 1.54048
174.50 1.54754
175.00 1.55429
175.50 1.55894
176.00 1.56361
176.50 1.56802
177.00 1.57159
177.50 1.57475
178.00 1.57786
178.50 1.57892
179.00 1.57963
179.50 1.58079
180.00 1.58249
180.00 1.58249
180.50 1.58079
181.00 1.57963
181.50 1.57892
182.00 1.57786
182.50 1.57475
183.00 1.57159
183.50 1.56802
184.00 1.56361
184.50 1.55894
185.00 1.55429
185.50 1.54754
186.00 1.54048
186.50 1.53401
187.00 1.52733
187.50 1.51771
188.00 1.50808
188.50 1.49844
189.00 1.48837
189.50 1.47479
190.00 1.46086
190.50 1.44888
191.00 1.43682
191.50 1.42470
192.00 1.41161
192.50 1.39437
193.00 1.37588
193.50 1.35731
194.00 1.33874
194.50 1.31877
195.00 1.29682
195.50 1.27619
196.00 1.25541
196.50 1.23460
197.00 1.21260
197.50 1.18563
198.00 1.15851
198.50 1.13162
199.00 1.10521
199.50 1.07354
200.00 1.03935
200.50 1.01075
201.00 0.98192
201.50 0.95283
202.00 0.92297
202.50 0.88794
203.00 0.85069
203.50 0.81320
204.00 0.77546
204.50 0.73822
205.00 0.70337
205.50 0.66857
206.00 0.63353
206.50 0.59825
207.00 0.56274
207.50 0.51801
208.00 0.47610
208.50 0.43815
209.00 0.40522
209.50 0.37608
210.00 0.34689
210.50 0.31764
211.00 0.28880
211.50 0.26235
212.00 0.23585
212.50 0.20930
213.00 0.19122
213.50 0.17530
214.00 0.15937
214.50 0.14377
215.00 0.12831
215.50 0.11285
216.00 0.10304
216.50 0.09382
217.00 0.08544
217.50 0.07790
218.00 0.07037
218.50 0.06284
219.00 0.05532
219.50 0.04912
220.00 0.04407
220.50 0.03988
221.00 0.03641
221.50 0.03294
222.00 0.02948
222.50 0.02602
223.00 0.02363
223.50 0.02156
224.00 0.01950
224.50 0.01743
225.00 0.01537
225.50 0.01411
226.00 0.01286
226.50 0.01161
227.00 0.01035
227.50 0.00911
228.00 0.00837
228.50 0.00766
229.00 0.00695
229.50 0.00624
230.00 0.00553
230.50 0.00496
231.00 0.00446
231.50 0.00405
232.00 0.00373
232.50 0.00341
233.00 0.00309
233.50 0.00277
234.00 0.00246
234.50 0.00217
235.00 0.00202
235.50 0.00188
236.00 0.00174
236.50 0.00160
237.00 0.00146
237.50 0.00132
238.00 0.00118
238.50 0.00106
239.00 0.00100
239.50 0.00094
240.00 0.00088
240.50 0.00082
241.00 0.00076
241.50 0.00069
242.00 0.00063
242.50 0.00059
243.00 0.00056
243.50 0.00054
244.00 0.00052
244.50 0.00049
245.00 0.00047
245.50 0.00044
246.00 0.00042
246.50 0.00040
247.00 0.00039
247.50 0.00037
248.00 0.00036
248.50 0.00035
249.00 0.00034
249.50 0.00032
250.00 0.00031
250.50 0.00031
251.00 0.00030
251.50 0.00029
252.00 0.00028
252.50 0.00027
253.00 0.00026
253.50 0.00025
254.00 0.00024
254.50 0.00024
255.00 0.00023
255.50 0.00022
256.00 0.00021
256.50 0.00021
257.00 0.00020
257.50 0.00019
258.00 0.00018
258.50 0.00018
259.00 0.00017
259.50 0.00016
260.00 0.00015
260.50 0.00015
261.00 0.00014
261.50 0.00013
262.00 0.00012
262.50 0.00012
263.00 0.00011
263.50 0.00010
264.00 0.00009
264.50 0.00009
265.00 0.00008
265.50 0.00007
266.00 0.00006
266.50 0.00006
267.00 0.00005
267.50 0.00004
268.00 0.00004
268.50 0.00003
269.00 0.00003
269.50 0.00003
270.00 0.00002
270.00 0.00002
270.50 0.00003
271.00 0.00003
271.50 0.00003
272.00 0.00004
272.50 0.00004
273.00 0.00005
273.50 0.00006
274.00 0.00006
274.50 0.00007
275.00 0.00008
275.50 0.00009
276.00 0.00009
276.50 0.00010
277.00 0.00011
277.50 0.00012
278.00 0.00012
278.50 0.00013
279.00 0.00014
279.50 0.00015
280.00 0.00015
280.50 0.00016
281.00 0.00017
281.50 0.00018
282.00 0.00018
282.50 0.00019
283.00 0.00020
283.50 0.00021
284.00 0.00021
284.50 0.00022
285.00 0.00023
285.50 0.00024
286.00 0.00024
286.50 0.00025
287.00 0.00026
287.50 0.00027
288.00 0.00028
288.50 0.00029
289.00 0.00030
289.50 0.00031
290.00 0.00031
290.50 0.00032
291.00 0.00034
291.50 0.00035
292.00 0.00036
292.50 0.00037
293.00 0.00039
293.50 0.00040
294.00 0.00042
294.50 0.00044
295.00 0.00047
295.50 0.00049
296.00 0.00052
296.50 0.00054
297.00 0.00056
297.50 0.00059
298.00 0.00063
298.50 0.00069
299.00 0.00076
299.50 0.00082
300.00 0.00088
300.50 0.00094
301.00 0.00100
301.50 0.00106
302.00 0.00118
302.50 0.00132
303.00 0.00146
303.50 0.00160
304.00 0.00174
304.50 0.00188
305.00 0.00202
305.50 0.00217
306.00 0.00246
306.50 0.00277
307.00 0.00309
307.50 0.00341
308.00 0.00373
308.50 0.00405
309.00 0.00446
309.50 0.00496
310.00 0.00553
310.50 0.00624
311.00 0.00695
311.50 0.00766
312.00 0.00837
312.50 0.00911
313.00 0.01035
313.50 0.01161
314.00 0.01286
314.50 0.01411
315.00 0.01537
315.50 0.01743
316.00 0.01950
316.50 0.02156
317.00 0.02363
317.50 0.02602
318.00 0.02948
318.50 0.03294
319.00 0.03641
319.50 0.03988
320.00 0.04407
320.50 0.04912
321.00 0.05532
321.50 0.06284
322.00 0.07037
322.50 0.07790
323.00 0.08544
323.50 0.09382
324.00 0.10304
324.50 0.11285
325.00 0.12831
325.50 0.14377
326.00 0.15937
326.50 0.17530
327.00 0.19122
327.50 0.20930
328.00 0.23585
328.50 0.26235
329.00 0.28880
329.50 0.31764
330.00 0.34689
330.50 0.37608
331.00 0.40522
331.50 0.43815
332.00 0.47610
332.50 0.51801
333.00 0.56274
333.50 0.59825
334.00 0.63353
334.50 0.66857
335.00 0.70337
335.50 0.73822
336.00 0.77546
336.50 0.81320
337.00 0.85069
337.50 0.88794
338.00 0.92297
338.50 0.95283
339.00 0.98192
339.50 1.01075
340.00 1.03935
340.50 1.07354
341.00 1.10521
341.50 1.13162
342.00 1.15851
342.50 1.18563
343.00 1.21260
343.50 1.23460
344.00 1.25541
344.50 1.27619
345.00 1.29682
345.50 1.31877
346.00 1.33874
346.50 1.35731
347.00 1.37588
347.50 1.39437
348.00 1.41161
348.50 1.42470
349.00 1.43682
349.50 1.44888
350.00 1.46086
350.50 1.47479
351.00 1.48837
351.50 1.49844
352.00 1.50808
352.50 1.51771
353.00 1.52733
353.50 1.53401
354.00 1.54048
354.50 1.54754
355.00 1.55429
355.50 1.55894
356.00 1.56361
356.50 1.56802
357.00 1.57159
357.50 1.57475
358.00 1.57786
358.50 1.57892
359.00 1.57963
359.50 1.58079
360.00 1.58249
