phi[deg] B[T]
0.00 1.67994
0.50 1.67933
1.00 1.67883
1.50 1.67847
2.00 1.67859
2.50 1.67824
3.00 1.67755
3.50 1.67684
4.00 1.67623
4.50 1.67565
5.00 1.67497
5.50 1.67439
6.00 1.67276
6.50 1.67040
7.00 1.66812
7.50 1.66597
8.00 1.66492
8.50 1.66395
9.00 1.66246
9.50 1.66064
10.00 1.65602
10.50 1.65147
11.00 1.64698
11.50 1.64256
12.00 1.63819
12.50 1.63389
13.00 1.62966
13.50 1.62637
14.00 1.62039
14.50 1.61330
15.00 1.60622
15.50 1.59915
16.00 1.59209
16.50 1.58504
17.00 1.57757
17.50 1.56950
18.00 1.55784
18.50 1.54619
19.00 1.53454
19.50 1.52291
20.00 1.50903
20.50 1.49422
21.00 1.47992
21.50 1.46557
22.00 1.45116
22.50 1.43670
23.00 1.42319
23.50 1.40284
24.00 1.38196
24.50 1.36096
25.00 1.33984
25.50 1.31860
26.00 1.29723
26.50 1.27576
27.00 1.25671
27.50 1.23724
28.00 1.21453
28.50 1.18517
29.00 1.15530
29.50 1.12523
30.00 1.09497
30.50 1.06453
31.00 1.03390
31.50 1.00308
32.00 0.97678
32.50 0.94548
33.00 0.91031
33.50 0.87462
34.00 0.83868
34.50 0.80251
35.00 0.76611
35.50 0.72948
36.00 0.69261
36.50 0.65571
37.00 0.61921
37.50 0.57778
38.00 0.53965
38.50 0.50431
39.00 0.47004
39.50 0.43567
40.00 0.40128
40.50 0.36874
41.00 0.33610
41.50 0.30416
42.00 0.27905
42.50 0.25374
43.00 0.22840
43.50 0.20843
44.00 0.18942
44.50 0.17038
45.00 0.15185
45.50 0.13925
46.00 0.12632
46.50 0.11339
47.00 0.10046
47.50 0.09119
48.00 0.08229
48.50 0.07380
49.00 0.06686
49.50 0.06031
50.00 0.05378
50.50 0.04924
51.00 0.04471
51.50 0.04026
52.00 0.03583
52.50 0.03160
53.00 0.02893
53.50 0.02631
54.00 0.02428
54.50 0.02225
55.00 0.02022
55.50 0.01820
56.00 0.01618
56.50 0.01416
57.00 0.01251
57.50 0.01114
58.00 0.00993
58.50 0.00920
59.00 0.00846
59.50 0.00771
60.00 0.00694
60.50 0.00618
61.00 0.00541
61.50 0.00487
62.00 0.00450
62.50 0.00413
63.00 0.00376
63.50 0.00339
64.00 0.00302
64.50 0.00266
65.00 0.00245
65.50 0.00228
66.00 0.00210
66.50 0.00192
67.00 0.00174
67.50 0.00156
68.00 0.00137
68.50 0.00126
69.00 0.00118
69.50 0.00110
70.00 0.00102
70.50 0.00094
71.00 0.00086
71.50 0.00078
72.00 0.00070
72.50 0.00064
73.00 0.00060
73.50 0.00057
74.00 0.00054
74.50 0.00051
75.00 0.00047
75.50 0.00044
76.00 0.00041
76.50 0.00038
77.00 0.00036
77.50 0.00034
78.00 0.00032
78.50 0.00031
79.00 0.00029
79.50 0.00027
80.00 0.00025
80.50 0.00024
81.00 0.00023
81.50 0.00021
82.00 0.00020
82.50 0.00019
83.00 0.00017
83.50 0.00016
84.00 0.00015
84.50 0.00014
85.00 0.00012
85.50 0.00011
86.00 0.00010
86.50 0.00009
87.00 0.00007
87.50 0.00006
88.00 0.00005
88.50 0.00005
89.00 0.00004
89.50 0.00004
90.00 0.00003
90.00 0.00003
90.50 0.00004
91.00 0.00004
91.50 0.00005
92.00 0.00005
92.50 0.00006
93.00 0.00007
93.50 0.00009
94.00 0.00010
94.50 0.00011
95.00 0.00012
95.50 0.00014
96.00 0.00015
96.50 0.00016
97.00 0.00017
97.50 0.00019
98.00 0.00020
98.50 0.00021
99.00 0.00023
99.50 0.00024
100.00 0.00025
100.50 0.00027
101.00 0.00029
101.50 0.00031
102.00 0.00032
102.50 0.00034
103.00 0.00036
103.50 0.00038
104.00 0.00041
104.50 0.00044
105.00 0.00047
105.50 0.00051
106.00 0.00054
106.50 0.00057
107.00 0.00060
107.50 0.00064
108.00 0.00070
108.50 0.00078
109.00 0.00086
109.50 0.00094
110.00 0.00102
110.50 0.00110
111.00 0.00118
111.50 0.00126
112.00 0.00137
112.50 0.00156
113.00 0.00174
113.50 0.00192
114.00 0.00210
114.50 0.00228
115.00 0.00245
115.50 0.00266
116.00 0.00302
116.50 0.00339
117.00 0.00376
117.50 0.00413
118.00 0.00450
118.50 0.00487
119.00 0.00541
119.50 0.00618
120.00 0.00694
120.50 0.00771
121.00 0.00846
121.50 0.00920
122.00 0.00993
122.50 0.01114
123.00 0.01251
123.50 0.01416
124.00 0.01618
124.50 0.01820
125.00 0.02022
125.50 0.02225
126.00 0.02428
126.50 0.02631
127.00 0.02893
127.50 0.03160
128.00 0.03583
128.50 0.04026
129.00 0.04471
129.50 0.04924
130.00 0.05378
130.50 0.06031
131.00 0.06686
131.50 0.07380
132.00 0.08229
132.50 0.09119
133.00 0.10046
133.50 0.11339
134.00 0.12632
134.50 0.13925
135.00 0.15185
135.50 0.17038
136.00 0.18942
136.50 0.20843
137.00 0.22840
137.50 0.25374
138.00 0.27905
138.50 0.30416
139.00 0.33610
139.50 0.36874
140.00 0.40128
140.50 0.43567
141.00 0.47004
141.50 0.50431
142.00 0.53965
142.50 0.57778
143.00 0.61921
143.50 0.65571
144.00 0.69261
144.50 0.72948
145.00 0.76611
145.50 0.80251
146.00 0.83868
146.50 0.87462
147.00 0.91031
147.50 0.94548
148.00 0.97678
148.50 1.00308
149.00 1.03390
149.50 1.06453
150.00 1.09497
150.50 1.12523
151.00 1.15530
151.50 1.18517
152.00 1.21453
152.50 1.23724
153.00 1.25671
153.50 1.27576
154.00 1.29723
154.50 1.31860
155.00 1.33984
155.50 1.36096
156.00 1.38196
156.50 1.40284
157.00 1.42319
157.50 1.43670
158.00 1.45116
158.50 1.46557
159.00 1.47992
159.50 1.49422
160.00 1.50903
160.50 1.52291
161.00 1.53454
161.50 1.54619
162.00 1.55784
162.50 1.56950
163.00 1.57757
163.50 1.58504
164.00 1.59209
164.50 1.59915
165.00 1.60622
165.50 1.61330
166.00 1.62039
166.50 1.62637
167.00 1.62966
167.50 1.63389
168.00 1.63819
168.50 1.64256
169.00 1.64698
169.50 1.65147
170.00 1.65602
170.50 1.66064
171.00 1.66246
171.50 1.66395
172.00 1.66492
172.50 1.66597
173.00 1.66812
173.50 1.67040
174.00 1.67276
174.50 1.67439
175.00 1.67497
175.50 1.67565
176.00 1.67623
176.50 1.67684
177.00 1.67755
177.50 1.67824
178.00 1.67859
178.50 1.67847
179.00 1.67883
179.50 1.67933
180.00 1.67994
180.00 1.67994
180.50 1.67933
181.00 1.67883
181.50 1.67847
182.00 1.67859
182.50 1.67824
183.00 1.67755
183.50 1.67684
184.00 1.67623
184.50 1.67565
185.00 1.67497
185.50 1.67439
186.00 1.67276
186.50 1.67040
187.00 1.66812
187.50 1.66597
188.00 1.66492
188.50 1.66395
189.00 1.66246
189.50 1.66064
190.00 1.65602
190.50 1.65147
191.00 1.64698
191.50 1.64256
192.00 1.63819
192.50 1.63389
193.00 1.62966
193.50 1.62637
194.00 1.62039
194.50 1.61330
195.00 1.60622
195.50 1.59915
196.00 1.59209
196.50 1.58504
197.00 1.57757
197.50 1.56950
198.00 1.55784
198.50 1.54619
199.00 1.53454
199.50 1.52291
200.00 1.50903
200.50 1.49422
201.00 1.47992
201.50 1.46557
202.00 1.45116
202.50 1.43670
203.00 1.42319
203.50 1.40284
204.00 1.38196
204.50 1.36096
205.00 1.33984
205.50 1.31860
206.00 1.29723
206.50 1.27576
207.00 1.25671
207.50 1.23724
208.00 1.21453
208.50 1.18517
209.00 1.15530
209.50 1.12523
210.00 1.09497
210.50 1.06453
211.00 1.03390
211.50 1.00308
212.00 0.97678
212.50 0.94548
213.00 0.91031
213.50 0.87462
214.00 0.83868
214.50 0.80251
215.00 0.76611
215.50 0.72948
216.00 0.69261
216.50 0.65571
217.00 0.61921
217.50 0.57778
218.00 0.53965
218.50 0.50431
219.00 0.47004
219.50 0.43567
220.00 0.40128
220.50 0.36874
221.00 0.33610
221.50 0.30416
222.00 0.27905
222.50 0.25374
223.00 0.22840
223.50 0.20843
224.00 0.18942
224.50 0.17038
225.00 0.15185
225.50 0.13925
226.00 0.12632
226.50 0.11339
227.00 0.10046
227.50 0.09119
228.00 0.08229
228.50 0.07380
229.00 0.06686
229.50 0.06031
230.00 0.05378
230.50 0.04924
231.00 0.04471
231.50 0.04026
232.00 0.03583
232.50 0.03160
233.00 0.02893
233.50 0.02631
234.00 0.02428
234.50 0.02225
235.00 0.02022
235.50 0.01820
236.00 0.01618
236.50 0.01416
237.00 0.01251
237.50 0.01114
238.00 0.00993
238.50 0.00920
239.00 0.00846
239.50 0.00771
240.00 0.00694
240.50 0.00618
241.00 0.00541
241.50 0.00487
242.00 0.00450
242.50 0.00413
243.00 0.00376
243.50 0.00339
244.00 0.00302
244.50 0.00266
245.00 0.00245
245.50 0.00228
246.00 0.00210
246.50 0.00192
247.00 0.00174
247.50 0.00156
248.00 0.00137
248.50 0.00126
249.00 0.00118
249.50 0.00110
250.00 0.00102
250.50 0.00094
251.00 0.00086
251.50 0.00078
252.00 0.00070
252.50 0.00064
253.00 0.00060
253.50 0.00057
254.00 0.00054
254.50 0.00051
255.00 0.00047
255.50 0.00044
256.00 0.00041
256.50 0.00038
257.00 0.00036
257.50 0.00034
258.00 0.00032
258.50 0.00031
259.00 0.00029
259.50 0.00027
260.00 0.00025
260.50 0.00024
261.00 0.00023
261.50 0.00021
262.00 0.00020
262.50 0.00019
263.00 0.00017
263.50 0.00016
264.00 0.00015
264.50 0.00014
265.00 0.00012
265.50 0.00011
266.00 0.00010
266.50 0.00009
267.00 0.00007
267.50 0.00006
268.00 0.00005
268.50 0.00005
269.00 0.00004
269.50 0.00004
270.00 0.00003
270.00 0.00003
270.50 0.00004
271.00 0.00004
271.50 0.00005
272.00 0.00005
272.50 0.00006
273.00 0.00007
273.50 0.00009
274.00 0.00010
274.50 0.00011
275.00 0.00012
275.50 0.00014
276.00 0.00015
276.50 0.00016
277.00 0.00017
277.50 0.00019
278.00 0.00020
278.50 0.00021
279.00 0.00023
279.50 0.00024
280.00 0.00025
280.50 0.00027
281.00 0.00029
281.50 0.00031
282.00 0.00032
282.50 0.00034
283.00 0.00036
283.50 0.00038
284.00 0.00041
284.50 0.00044
285.00 0.00047
285.50 0.00051
286.00 0.00054
286.50 0.00057
287.00 0.00060
287.50 0.00064
288.00 0.00070
288.50 0.00078
289.00 0.00086
289.50 0.00094
290.00 0.00102
290.50 0.00110
291.00 0.00118
291.50 0.00126
292.00 0.00137
292.50 0.00156
293.00 0.00174
293.50 0.00192
294.00 0.00210
294.50 0.00228
295.00 0.00245
295.50 0.00266
296.00 0.00302
296.50 0.00339
297.00 0.00376
297.50 0.00413
298.00 0.00450
298.50 0.00487
299.00 0.00541
299.50 0.00618
300.00 0.00694
300.50 0.00771
301.00 0.00846
301.50 0.00920
302.00 0.00993
302.50 0.01114
303.00 0.01251
303.50 0.01416
304.00 0.01618
304.50 0.01820
305.00 0.02022
305.50 0.02225
306.00 0.02428
306.50 0.02631
307.00 0.02893
307.50 0.03160
308.00 0.03583
308.50 0.04026
309.00 0.04471
309.50 0.04924
310.00 0.05378
310.50 0.06031
311.00 0.06686
311.50 0.07380
312.00 0.08229
312.50 0.09119
313.00 0.10046
313.50 0.11339
314.00 0.12632
314.50 0.13925
315.00 0.15185
315.50 0.17038
316.00 0.18942
316.50 0.20843
317.00 0.22840
317.50 0.25374
318.00 0.27905
318.50 0.30416
319.00 0.33610
319.50 0.36874
320.00 0.40128
320.50 0.43567
321.00 0.47004
321.50 0.50431
322.00 0.53965
322.50 0.57778
323.00 0.61921
323.50 0.65571
324.00 0.69261
324.50 0.72948
325.00 0.76611
325.50 0.80251
326.00 0.83868
326.50 0.87462
327.00 0.91031
327.50 0.94548
328.00 0.97678
328.50 1.00308
329.00 1.03390
329.50 1.06453
330.00 1.09497
330.50 1.12523
331.00 1.15530
331.50 1.18517
332.00 1.21453
332.50 1.23724
333.00 1.25671
333.50 1.27576
334.00 1.29723
334.50 1.31860
335.00 1.33984
335.50 1.36096
336.00 1.38196
336.50 1.40284
337.00 1.42319
337.50 1.43670
338.00 1.45116
338.50 1.46557
339.00 1.47992
339.50 1.49422
340.00 1.50903
340.50 1.52291
341.00 1.53454
341.50 1.54619
342.00 1.55784
342.50 1.56950
343.00 1.57757
343.50 1.58504
344.00 1.59209
344.50 1.59915
345.00 1.60622
345.50 1.61330
346.00 1.62039
346.50 1.62637
347.00 1.62966
347.50 1.63389
348.00 1.63819
348.50 1.64256
349.00 1.64698
349.50 1.65147
350.00 1.65602
350.50 1.66064
351.00 1.66246
351.50 1.66395
352.00 1.66492
352.50 1.66597
353.00 1.66812
353.50 1.67040
354.00 1.67276
354.50 1.67439
355.00 1.67497
355.50 1.67565
356.00 1.67623
356.50 1.67684
357.00 1.67755
357.50 1.67824
358.00 1.67859
358.50 1.67847
359.00 1.67883
359.50 1.67933
360.00 1.67994
