phi[deg] B[T]
0.00 1.53373
0.50 1.53309
1.00 1.53257
1.50 1.53215
2.00 1.53176
2.50 1.53131
3.00 1.53098
3.50 1.53078
4.00 1.53071
4.50 1.53086
5.00 1.53113
5.50 1.53176
6.00 1.53263
6.50 1.53361
7.00 1.53440
7.50 1.53523
8.00 1.53617
8.50 1.53723
9.00 1.53971
9.50 1.54218
10.00 1.54396
10.50 1.54485
11.00 1.54522
11.50 1.54569
12.00 1.54623
12.50 1.54530
13.00 1.54397
13.50 1.54261
14.00 1.54075
14.50 1.53898
15.00 1.53730
15.50 1.53527
16.00 1.53315
16.50 1.53109
17.00 1.52801
17.50 1.52501
18.00 1.52210
18.50 1.51981
19.00 1.51875
19.50 1.51734
20.00 1.51579
20.50 1.51112
21.00 1.50628
21.50 1.50148
22.00 1.49649
22.50 1.49045
23.00 1.48445
23.50 1.47613
24.00 1.46535
24.50 1.45458
25.00 1.44265
25.50 1.42781
26.00 1.41301
26.50 1.39797
27.00 1.38262
27.50 1.36732
28.00 1.35206
28.50 1.33648
29.00 1.32051
29.50 1.30570
30.00 1.29052
30.50 1.27444
31.00 1.25840
31.50 1.24241
32.00 1.22648
32.50 1.21237
33.00 1.19832
33.50 1.18182
34.00 1.16368
34.50 1.14556
35.00 1.12746
35.50 1.11015
36.00 1.09341
36.50 1.07388
37.00 1.05288
37.50 1.03217
38.00 1.01233
38.50 0.99248
39.00 0.97206
39.50 0.95167
40.00 0.93133
40.50 0.91112
41.00 0.89154
41.50 0.87225
42.00 0.85302
42.50 0.83393
43.00 0.81571
43.50 0.79757
44.00 0.77997
44.50 0.76275
45.00 0.74559
45.50 0.72967
46.00 0.71376
46.50 0.69891
47.00 0.68519
47.50 0.67071
48.00 0.65824
48.50 0.64650
49.00 0.63419
49.50 0.62155
50.00 0.60964
50.50 0.59902
51.00 0.59185
51.50 0.58058
52.00 0.56693
52.50 0.55321
53.00 0.53940
53.50 0.52633
54.00 0.51676
54.50 0.50280
55.00 0.48406
55.50 0.46515
56.00 0.44607
56.50 0.42682
57.00 0.40867
57.50 0.39200
58.00 0.36309
58.50 0.33796
59.00 0.31510
59.50 0.29212
60.00 0.26797
60.50 0.24208
61.00 0.21607
61.50 0.19026
62.00 0.17101
62.50 0.15394
63.00 0.13661
63.50 0.11878
64.00 0.10093
64.50 0.08891
65.00 0.07906
65.50 0.06920
66.00 0.05951
66.50 0.05071
67.00 0.04523
67.50 0.03993
68.00 0.03464
68.50 0.02933
69.00 0.02520
69.50 0.02200
70.00 0.01931
70.50 0.01688
71.00 0.01445
71.50 0.01257
72.00 0.01112
72.50 0.00968
73.00 0.00835
73.50 0.00715
74.00 0.00613
74.50 0.00549
75.00 0.00485
75.50 0.00422
76.00 0.00359
76.50 0.00310
77.00 0.00276
77.50 0.00243
78.00 0.00209
78.50 0.00179
79.00 0.00161
79.50 0.00144
80.00 0.00126
80.50 0.00109
81.00 0.00095
81.50 0.00085
82.00 0.00076
82.50 0.00065
83.00 0.00058
83.50 0.00052
84.00 0.00046
84.50 0.00040
85.00 0.00035
85.50 0.00032
86.00 0.00028
86.50 0.00025
87.00 0.00022
87.50 0.00020
88.00 0.00018
88.50 0.00016
89.00 0.00015
89.50 0.00014
90.00 0.00013
90.00 0.00013
90.50 0.00014
91.00 0.00015
91.50 0.00016
92.00 0.00018
92.50 0.00020
93.00 0.00022
93.50 0.00025
94.00 0.00028
94.50 0.00032
95.00 0.00035
95.50 0.00040
96.00 0.00046
96.50 0.00052
97.00 0.00058
97.50 0.00065
98.00 0.00076
98.50 0.00085
99.00 0.00095
99.50 0.00109
100.00 0.00126
100.50 0.00144
101.00 0.00161
101.50 0.00179
102.00 0.00209
102.50 0.00243
103.00 0.00276
103.50 0.00310
104.00 0.00359
104.50 0.00422
105.00 0.00485
105.50 0.00549
106.00 0.00613
106.50 0.00715
107.00 0.00835
107.50 0.00968
108.00 0.01112
108.50 0.01257
109.00 0.01445
109.50 0.01688
110.00 0.01931
110.50 0.02200
111.00 0.02520
111.50 0.02933
112.00 0.03464
112.50 0.03993
113.00 0.04523
113.50 0.05071
114.00 0.05951
114.50 0.06920
115.00 0.07906
115.50 0.08891
116.00 0.10093
116.50 0.11878
117.00 0.13661
117.50 0.15394
118.00 0.17101
118.50 0.19026
119.00 0.21607
119.50 0.24208
120.00 0.26797
120.50 0.29212
121.00 0.31510
121.50 0.33796
122.00 0.36309
122.50 0.39200
123.00 0.40867
123.50 0.42682
124.00 0.44607
124.50 0.46515
125.00 0.48406
125.50 0.50280
126.00 0.51676
126.50 0.52633
127.00 0.53940
127.50 0.55321
128.00 0.56693
128.50 0.58058
129.00 0.59185
129.50 0.59902
130.00 0.60964
130.50 0.62155
131.00 0.63419
131.50 0.64650
132.00 0.65824
132.50 0.67071
133.00 0.68519
133.50 0.69891
134.00 0.71376
134.50 0.72967
135.00 0.74559
135.50 0.76275
136.00 0.77997
136.50 0.79757
137.00 0.81571
137.50 0.83393
138.00 0.85302
138.50 0.87225
139.00 0.89154
139.50 0.91112
140.00 0.93133
140.50 0.95167
141.00 0.97206
141.50 0.99248
142.00 1.01233
142.50 1.03217
143.00 1.05288
143.50 1.07388
144.00 1.09341
144.50 1.11015
145.00 1.12746
145.50 1.14556
146.00 1.16368
146.50 1.18182
147.00 1.19832
147.50 1.21237
148.00 1.22648
148.50 1.24241
149.00 1.25840
149.50 1.27444
150.00 1.29052
150.50 1.30570
151.00 1.32051
151.50 1.33648
152.00 1.35206
152.50 1.36732
153.00 1.38262
153.50 1.39797
154.00 1.41301
154.50 1.42781
155.00 1.44265
155.50 1.45458
156.00 1.46535
156.50 1.47613
157.00 1.48445
157.50 1.49045
158.00 1.49649
158.50 1.50148
159.00 1.50628
159.50 1.51112
160.00 1.51579
160.50 1.51734
161.00 1.51875
161.50 1.51981
162.00 1.52210
162.50 1.52501
163.00 1.52801
163.50 1.53109
164.00 1.53315
164.50 1.53527
165.00 1.53730
165.50 1.53898
166.00 1.54075
166.50 1.54261
167.00 1.54397
167.50 1.54530
168.00 1.54623
168.50 1.54569
169.00 1.54522
169.50 1.54485
170.00 1.54396
170.50 1.54218
171.00 1.53971
171.50 1.53723
172.00 1.53617
172.50 1.53523
173.00 1.53440
173.50 1.53361
174.00 1.53263
174.50 1.53176
175.00 1.53113
175.50 1.53086
176.00 1.53071
176.50 1.53078
177.00 1.53098
177.50 1.53131
178.00 1.53176
178.50 1.53215
179.00 1.53257
179.50 1.53309
180.00 1.53373
180.00 1.53373
180.50 1.53309
181.00 1.53257
181.50 1.53215
182.00 1.53176
182.50 1.53131
183.00 1.53098
183.50 1.53078
184.00 1.53071
184.50 1.53086
185.00 1.53113
185.50 1.53176
186.00 1.53263
186.50 1.53361
187.00 1.53440
187.50 1.53523
188.00 1.53617
188.50 1.53723
189.00 1.53971
189.50 1.54218
190.00 1.54396
190.50 1.54485
191.00 1.54522
191.50 1.54569
192.00 1.54623
192.50 1.54530
193.00 1.54397
193.50 1.54261
194.00 1.54075
194.50 1.53898
195.00 1.53730
195.50 1.53527
196.00 1.53315
196.50 1.53109
197.00 1.52801
197.50 1.52501
198.00 1.52210
198.50 1.51981
199.00 1.51875
199.50 1.51734
200.00 1.51579
200.50 1.51112
201.00 1.50628
201.50 1.50148
202.00 1.49649
202.50 1.49045
203.00 1.48445
203.50 1.47613
204.00 1.46535
204.50 1.45458
205.00 1.44265
205.50 1.42781
206.00 1.41301
206.50 1.39797
207.00 1.38262
207.50 1.36732
208.00 1.35206
208.50 1.33648
209.00 1.32051
209.50 1.30570
210.00 1.29052
210.50 1.27444
211.00 1.25840
211.50 1.24241
212.00 1.22648
212.50 1.21237
213.00 1.19832
213.50 1.18182
214.00 1.16368
214.50 1.14556
215.00 1.12746
215.50 1.11015
216.00 1.09341
216.50 1.07388
217.00 1.05288
217.50 1.03217
218.00 1.01233
218.50 0.99248
219.00 0.97206
219.50 0.95167
220.00 0.93133
220.50 0.91112
221.00 0.89154
221.50 0.87225
222.00 0.85302
222.50 0.83393
223.00 0.81571
223.50 0.79757
224.00 0.77997
224.50 0.76275
225.00 0.74559
225.50 0.72967
226.00 0.71376
226.50 0.69891
227.00 0.68519
227.50 0.67071
228.00 0.65824
228.50 0.64650
229.00 0.63419
229.50 0.62155
230.00 0.60964
230.50 0.59902
231.00 0.59185
231.50 0.58058
232.00 0.56693
232.50 0.55321
233.00 0.53940
233.50 0.52633
234.00 0.51676
234.50 0.50280
235.00 0.48406
235.50 0.46515
236.00 0.44607
236.50 0.42682
237.00 0.40867
237.50 0.39200
238.00 0.36309
238.50 0.33796
239.00 0.31510
239.50 0.29212
240.00 0.26797
240.50 0.24208
241.00 0.21607
241.50 0.19026
242.00 0.17101
242.50 0.15394
243.00 0.13661
243.50 0.11878
244.00 0.10093
244.50 0.08891
245.00 0.07906
245.50 0.06920
246.00 0.05951
246.50 0.05071
247.00 0.04523
247.50 0.03993
248.00 0.03464
248.50 0.02933
249.00 0.02520
249.50 0.02200
250.00 0.01931
250.50 0.01688
251.00 0.01445
251.50 0.01257
252.00 0.01112
252.50 0.00968
253.00 0.00835
253.50 0.00715
254.00 0.00613
254.50 0.00549
255.00 0.00485
255.50 0.00422
256.00 0.00359
256.50 0.00310
257.00 0.00276
257.50 0.00243
258.00 0.00209
258.50 0.00179
259.00 0.00161
259.50 0.00144
260.00 0.00126
260.50 0.00109
261.00 0.00095
261.50 0.00085
262.00 0.00076
262.50 0.00065
263.00 0.00058
263.50 0.00052
264.00 0.00046
264.50 0.00040
265.00 0.00035
265.50 0.00032
266.00 0.00028
266.50 0.00025
267.00 0.00022
267.50 0.00020
268.00 0.00018
268.50 0.00016
269.00 0.00015
269.50 0.00014
270.00 0.00013
270.00 0.00013
270.50 0.00014
271.00 0.00015
271.50 0.00016
272.00 0.00018
272.50 0.00020
273.00 0.00022
273.50 0.00025
274.00 0.00028
274.50 0.00032
275.00 0.00035
275.50 0.00040
276.00 0.00046
276.50 0.00052
277.00 0.00058
277.50 0.00065
278.00 0.00076
278.50 0.00085
279.00 0.00095
279.50 0.00109
280.00 0.00126
280.50 0.00144
281.00 0.00161
281.50 0.00179
282.00 0.00209
282.50 0.00243
283.00 0.00276
283.50 0.00310
284.00 0.00359
284.50 0.00422
285.00 0.00485
285.50 0.00549
286.00 0.00613
286.50 0.00715
287.00 0.00835
287.50 0.00968
288.00 0.01112
288.50 0.01257
289.00 0.01445
289.50 0.01688
290.00 0.01931
290.50 0.02200
291.00 0.02520
291.50 0.02933
292.00 0.03464
292.50 0.03993
293.00 0.04523
293.50 0.05071
294.00 0.05951
294.50 0.06920
295.00 0.07906
295.50 0.08891
296.00 0.10093
296.50 0.11878
297.00 0.13661
297.50 0.15394
298.00 0.17101
298.50 0.19026
299.00 0.21607
299.50 0.24208
300.00 0.26797
300.50 0.29212
301.00 0.31510
301.50 0.33796
302.00 0.36309
302.50 0.39200
303.00 0.40867
303.50 0.42682
304.00 0.44607
304.50 0.46515
305.00 0.48406
305.50 0.50280
306.00 0.51676
306.50 0.52633
307.00 0.53940
307.50 0.55321
308.00 0.56693
308.50 0.58058
309.00 0.59185
309.50 0.59902
310.00 0.60964
310.50 0.62155
311.00 0.63419
311.50 0.64650
312.00 0.65824
312.50 0.67071
313.00 0.68519
313.50 0.69891
314.00 0.71376
314.50 0.72967
315.00 0.74559
315.50 0.76275
316.00 0.77997
316.50 0.79757
317.00 0.81571
317.50 0.83393
318.00 0.85302
318.50 0.87225
319.00 0.89154
319.50 0.91112
320.00 0.93133
320.50 0.95167
321.00 0.97206
321.50 0.99248
322.00 1.01233
322.50 1.03217
323.00 1.05288
323.50 1.07388
324.00 1.09341
324.50 1.11015
325.00 1.12746
325.50 1.14556
326.00 1.16368
326.50 1.18182
327.00 1.19832
327.50 1.21237
328.00 1.22648
328.50 1.24241
329.00 1.25840
329.50 1.27444
330.00 1.29052
330.50 1.30570
331.00 1.32051
331.50 1.33648
332.00 1.35206
332.50 1.36732
333.00 1.38262
333.50 1.39797
334.00 1.41301
334.50 1.42781
335.00 1.44265
335.50 1.45458
336.00 1.46535
336.50 1.47613
337.00 1.48445
337.50 1.49045
338.00 1.49649
338.50 1.50148
339.00 1.50628
339.50 1.51112
340.00 1.51579
340.50 1.51734
341.00 1.51875
341.50 1.51981
342.00 1.52210
342.50 1.52501
343.00 1.52801
343.50 1.53109
344.00 1.53315
344.50 1.53527
345.00 1.53730
345.50 1.53898
346.00 1.54075
346.50 1.54261
347.00 1.54397
347.50 1.54530
348.00 1.54623
348.50 1.54569
349.00 1.54522
349.50 1.54485
350.00 1.54396
350.50 1.54218
351.00 1.53971
351.50 1.53723
352.00 1.53617
352.50 1.53523
353.00 1.53440
353.50 1.53361
354.00 1.53263
354.50 1.53176
355.00 1.53113
355.50 1.53086
356.00 1.53071
356.50 1.53078
357.00 1.53098
357.50 1.53131
358.00 1.53176
358.50 1.53215
359.00 1.53257
359.50 1.53309
360.00 1.53373
