phi[deg] B[T]
0.00 1.53304
0.50 1.53240
1.00 1.53188
1.50 1.53147
2.00 1.53108
2.50 1.53064
3.00 1.53032
3.50 1.53012
4.00 1.53006
4.50 1.53022
5.00 1.53051
5.50 1.53115
6.00 1.53202
6.50 1.53301
7.00 1.53382
7.50 1.53467
8.00 1.53564
8.50 1.53672
9.00 1.53922
9.50 1.54171
10.00 1.54353
10.50 1.54447
11.00 1.54489
11.50 1.54540
12.00 1.54600
12.50 1.54516
13.00 1.54391
13.50 1.54264
14.00 1.54086
14.50 1.53917
15.00 1.53758
15.50 1.53565
16.00 1.53365
16.50 1.53170
17.00 1.52869
17.50 1.52577
18.00 1.52294
18.50 1.52074
19.00 1.51978
19.50 1.51846
20.00 1.51699
20.50 1.51236
21.00 1.50756
21.50 1.50280
22.00 1.49783
22.50 1.49179
23.00 1.48580
23.50 1.47746
24.00 1.46663
24.50 1.45582
25.00 1.44382
25.50 1.42886
26.00 1.41393
26.50 1.39878
27.00 1.38333
27.50 1.36793
28.00 1.35257
28.50 1.33687
29.00 1.32075
29.50 1.30581
30.00 1.29052
30.50 1.27434
31.00 1.25822
31.50 1.24214
32.00 1.22611
32.50 1.21191
33.00 1.19776
33.50 1.18121
34.00 1.16303
34.50 1.14487
35.00 1.12675
35.50 1.10940
36.00 1.09262
36.50 1.07310
37.00 1.05214
37.50 1.03146
38.00 1.01163
38.50 0.99181
39.00 0.97144
39.50 0.95111
40.00 0.93083
40.50 0.91067
41.00 0.89114
41.50 0.87192
42.00 0.85275
42.50 0.83373
43.00 0.81557
43.50 0.79750
44.00 0.77997
44.50 0.76280
45.00 0.74571
45.50 0.72984
46.00 0.71399
46.50 0.69919
47.00 0.68551
47.50 0.67107
48.00 0.65863
48.50 0.64691
49.00 0.63461
49.50 0.62197
50.00 0.61006
50.50 0.59944
51.00 0.59225
51.50 0.58095
52.00 0.56730
52.50 0.55355
53.00 0.53973
53.50 0.52665
54.00 0.51705
54.50 0.50307
55.00 0.48431
55.50 0.46538
56.00 0.44628
56.50 0.42701
57.00 0.40884
57.50 0.39215
58.00 0.36324
58.50 0.33809
59.00 0.31522
59.50 0.29222
60.00 0.26807
60.50 0.24217
61.00 0.21614
61.50 0.19032
62.00 0.17107
62.50 0.15399
63.00 0.13665
63.50 0.11882
64.00 0.10097
64.50 0.08893
65.00 0.07908
65.50 0.06922
66.00 0.05953
66.50 0.05073
67.00 0.04524
67.50 0.03995
68.00 0.03465
68.50 0.02934
69.00 0.02520
69.50 0.02201
70.00 0.01931
70.50 0.01689
71.00 0.01445
71.50 0.01257
72.00 0.01113
72.50 0.00968
73.00 0.00835
73.50 0.00715
74.00 0.00613
74.50 0.00549
75.00 0.00486
75.50 0.00422
76.00 0.00359
76.50 0.00310
77.00 0.00276
77.50 0.00243
78.00 0.00209
78.50 0.00179
79.00 0.00161
79.50 0.00144
80.00 0.00126
80.50 0.00109
81.00 0.00095
81.50 0.00085
82.00 0.00076
82.50 0.00065
83.00 0.00058
83.50 0.00052
84.00 0.00046
84.50 0.00040
85.00 0.00035
85.50 0.00032
86.00 0.00028
86.50 0.00025
87.00 0.00022
87.50 0.00020
88.00 0.00018
88.50 0.00016
89.00 0.00015
89.50 0.00014
90.00 0.00013
90.00 0.00013
90.50 0.00014
91.00 0.00015
91.50 0.00016
92.00 0.00018
92.50 0.00020
93.00 0.00022
93.50 0.00025
94.00 0.00028
94.50 0.00032
95.00 0.00035
95.50 0.00040
96.00 0.00046
96.50 0.00052
97.00 0.00058
97.50 0.00065
98.00 0.00076
98.50 0.00085
99.00 0.00095
99.50 0.00109
100.00 0.00126
100.50 0.00144
101.00 0.00161
101.50 0.00179
102.00 0.00209
102.50 0.00243
103.00 0.00276
103.50 0.00310
104.00 0.00359
104.50 0.00422
105.00 0.00486
105.50 0.00549
106.00 0.00613
106.50 0.00715
107.00 0.00835
107.50 0.00968
108.00 0.01113
108.50 0.01257
109.00 0.01445
109.50 0.01689
110.00 0.01931
110.50 0.02201
111.00 0.02520
111.50 0.02934
112.00 0.03465
112.50 0.03995
113.00 0.04524
113.50 0.05073
114.00 0.05953
114.50 0.06922
115.00 0.07908
115.50 0.08893
116.00 0.10097
116.50 0.11882
117.00 0.13665
117.50 0.15399
118.00 0.17107
118.50 0.19032
119.00 0.21614
119.50 0.24217
120.00 0.26807
120.50 0.29222
121.00 0.31522
121.50 0.33809
122.00 0.36324
122.50 0.39215
123.00 0.40884
123.50 0.42701
124.00 0.44628
124.50 0.46538
125.00 0.48431
125.50 0.50307
126.00 0.51705
126.50 0.52665
127.00 0.53973
127.50 0.55355
128.00 0.56730
128.50 0.58095
129.00 0.59225
129.50 0.59944
130.00 0.61006
130.50 0.62197
131.00 0.63461
131.50 0.64691
132.00 0.65863
132.50 0.67107
133.00 0.68551
133.50 0.69919
134.00 0.71399
134.50 0.72984
135.00 0.74571
135.50 0.76280
136.00 0.77997
136.50 0.79750
137.00 0.81557
137.50 0.83373
138.00 0.85275
138.50 0.87192
139.00 0.89114
139.50 0.91067
140.00 0.93083
140.50 0.95111
141.00 0.97144
141.50 0.99181
142.00 1.01163
142.50 1.03146
143.00 1.05214
143.50 1.07310
144.00 1.09262
144.50 1.10940
145.00 1.12675
145.50 1.14487
146.00 1.16303
146.50 1.18121
147.00 1.19776
147.50 1.21191
148.00 1.22611
148.50 1.24214
149.00 1.25822
149.50 1.27434
150.00 1.29052
150.50 1.30581
151.00 1.32075
151.50 1.33687
152.00 1.35257
152.50 1.36793
153.00 1.38333
153.50 1.39878
154.00 1.41393
154.50 1.42886
155.00 1.44382
155.50 1.45582
156.00 1.46663
156.50 1.47746
157.00 1.48580
157.50 1.49179
158.00 1.49783
158.50 1.50280
159.00 1.50756
159.50 1.51236
160.00 1.51699
160.50 1.51846
161.00 1.51978
161.50 1.52074
162.00 1.52294
162.50 1.52577
163.00 1.52869
163.50 1.53170
164.00 1.53365
164.50 1.53565
165.00 1.53758
165.50 1.53917
166.00 1.54086
166.50 1.54264
167.00 1.54391
167.50 1.54516
168.00 1.54600
168.50 1.54540
169.00 1.54489
169.50 1.54447
170.00 1.54353
170.50 1.54171
171.00 1.53922
171.50 1.53672
172.00 1.53564
172.50 1.53467
173.00 1.53382
173.50 1.53301
174.00 1.53202
174.50 1.53115
175.00 1.53051
175.50 1.53022
176.00 1.53006
176.50 1.53012
177.00 1.53032
177.50 1.53064
178.00 1.53108
178.50 1.53147
179.00 1.53188
179.50 1.53240
180.00 1.53304
180.00 1.53304
180.50 1.53240
181.00 1.53188
181.50 1.53147
182.00 1.53108
182.50 1.53064
183.00 1.53032
183.50 1.53012
184.00 1.53006
184.50 1.53022
185.00 1.53051
185.50 1.53115
186.00 1.53202
186.50 1.53301
187.00 1.53382
187.50 1.53467
188.00 1.53564
188.50 1.53672
189.00 1.53922
189.50 1.54171
190.00 1.54353
190.50 1.54447
191.00 1.54489
191.50 1.54540
192.00 1.54600
192.50 1.54516
193.00 1.54391
193.50 1.54264
194.00 1.54086
194.50 1.53917
195.00 1.53758
195.50 1.53565
196.00 1.53365
196.50 1.53170
197.00 1.52869
197.50 1.52577
198.00 1.52294
198.50 1.52074
199.00 1.51978
199.50 1.51846
200.00 1.51699
200.50 1.51236
201.00 1.50756
201.50 1.50280
202.00 1.49783
202.50 1.49179
203.00 1.48580
203.50 1.47746
204.00 1.46663
204.50 1.45582
205.00 1.44382
205.50 1.42886
206.00 1.41393
206.50 1.39878
207.00 1.38333
207.50 1.36793
208.00 1.35257
208.50 1.33687
209.00 1.32075
209.50 1.30581
210.00 1.29052
210.50 1.27434
211.00 1.25822
211.50 1.24214
212.00 1.22611
212.50 1.21191
213.00 1.19776
213.50 1.18121
214.00 1.16303
214.50 1.14487
215.00 1.12675
215.50 1.10940
216.00 1.09262
216.50 1.07310
217.00 1.05214
217.50 1.03146
218.00 1.01163
218.50 0.99181
219.00 0.97144
219.50 0.95111
220.00 0.93083
220.50 0.91067
221.00 0.89114
221.50 0.87192
222.00 0.85275
222.50 0.83373
223.00 0.81557
223.50 0.79750
224.00 0.77997
224.50 0.76280
225.00 0.74571
225.50 0.72984
226.00 0.71399
226.50 0.69919
227.00 0.68551
227.50 0.67107
228.00 0.65863
228.50 0.64691
229.00 0.63461
229.50 0.62197
230.00 0.61006
230.50 0.59944
231.00 0.59225
231.50 0.58095
232.00 0.56730
232.50 0.55355
233.00 0.53973
233.50 0.52665
234.00 0.51705
234.50 0.50307
235.00 0.48431
235.50 0.46538
236.00 0.44628
236.50 0.42701
237.00 0.40884
237.50 0.39215
238.00 0.36324
238.50 0.33809
239.00 0.31522
239.50 0.29222
240.00 0.26807
240.50 0.24217
241.00 0.21614
241.50 0.19032
242.00 0.17107
242.50 0.15399
243.00 0.13665
243.50 0.11882
244.00 0.10097
244.50 0.08893
245.00 0.07908
245.50 0.06922
246.00 0.05953
246.50 0.05073
247.00 0.04524
247.50 0.03995
248.00 0.03465
248.50 0.02934
249.00 0.02520
249.50 0.02201
250.00 0.01931
250.50 0.01689
251.00 0.01445
251.50 0.01257
252.00 0.01113
252.50 0.00968
253.00 0.00835
253.50 0.00715
254.00 0.00613
254.50 0.00549
255.00 0.00486
255.50 0.00422
256.00 0.00359
256.50 0.00310
257.00 0.00276
257.50 0.00243
258.00 0.00209
258.50 0.00179
259.00 0.00161
259.50 0.00144
260.00 0.00126
260.50 0.00109
261.00 0.00095
261.50 0.00085
262.00 0.00076
262.50 0.00065
263.00 0.00058
263.50 0.00052
264.00 0.00046
264.50 0.00040
265.00 0.00035
265.50 0.00032
266.00 0.00028
266.50 0.00025
267.00 0.00022
267.50 0.00020
268.00 0.00018
268.50 0.00016
269.00 0.00015
269.50 0.00014
270.00 0.00013
270.00 0.00013
270.50 0.00014
271.00 0.00015
271.50 0.00016
272.00 0.00018
272.50 0.00020
273.00 0.00022
273.50 0.00025
274.00 0.00028
274.50 0.00032
275.00 0.00035
275.50 0.00040
276.00 0.00046
276.50 0.00052
277.00 0.00058
277.50 0.00065
278.00 0.00076
278.50 0.00085
279.00 0.00095
279.50 0.00109
280.00 0.00126
280.50 0.00144
281.00 0.00161
281.50 0.00179
282.00 0.00209
282.50 0.00243
283.00 0.00276
283.50 0.00310
284.00 0.00359
284.50 0.00422
285.00 0.00486
285.50 0.00549
286.00 0.00613
286.50 0.00715
287.00 0.00835
287.50 0.00968
288.00 0.01113
288.50 0.01257
289.00 0.01445
289.50 0.01689
290.00 0.01931
290.50 0.02201
291.00 0.02520
291.50 0.02934
292.00 0.03465
292.50 0.03995
293.00 0.04524
293.50 0.05073
294.00 0.05953
294.50 0.06922
295.00 0.07908
295.50 0.08893
296.00 0.10097
296.50 0.11882
297.00 0.13665
297.50 0.15399
298.00 0.17107
298.50 0.19032
299.00 0.21614
299.50 0.24217
300.00 0.26807
300.50 0.29222
301.00 0.31522
301.50 0.33809
302.00 0.36324
302.50 0.39215
303.00 0.40884
303.50 0.42701
304.00 0.44628
304.50 0.46538
305.00 0.48431
305.50 0.50307
306.00 0.51705
306.50 0.52665
307.00 0.53973
307.50 0.55355
308.00 0.56730
308.50 0.58095
309.00 0.59225
309.50 0.59944
310.00 0.61006
310.50 0.62197
311.00 0.63461
311.50 0.64691
312.00 0.65863
312.50 0.67107
313.00 0.68551
313.50 0.69919
314.00 0.71399
314.50 0.72984
315.00 0.74571
315.50 0.76280
316.00 0.77997
316.50 0.79750
317.00 0.81557
317.50 0.83373
318.00 0.85275
318.50 0.87192
319.00 0.89114
319.50 0.91067
320.00 0.93083
320.50 0.95111
321.00 0.97144
321.50 0.99181
322.00 1.01163
322.50 1.03146
323.00 1.05214
323.50 1.07310
324.00 1.09262
324.50 1.10940
325.00 1.12675
325.50 1.14487
326.00 1.16303
326.50 1.18121
327.00 1.19776
327.50 1.21191
328.00 1.22611
328.50 1.24214
329.00 1.25822
329.50 1.27434
330.00 1.29052
330.50 1.30581
331.00 1.32075
331.50 1.33687
332.00 1.35257
332.50 1.36793
333.00 1.38333
333.50 1.39878
334.00 1.41393
334.50 1.42886
335.00 1.44382
335.50 1.45582
336.00 1.46663
336.50 1.47746
337.00 1.48580
337.50 1.49179
338.00 1.49783
338.50 1.50280
339.00 1.50756
339.50 1.51236
340.00 1.51699
340.50 1.51846
341.00 1.51978
341.50 1.52074
342.00 1.52294
342.50 1.52577
343.00 1.52869
343.50 1.53170
344.00 1.53365
344.50 1.53565
345.00 1.53758
345.50 1.53917
346.00 1.54086
346.50 1.54264
347.00 1.54391
347.50 1.54516
348.00 1.54600
348.50 1.54540
349.00 1.54489
349.50 1.54447
350.00 1.54353
350.50 1.54171
351.00 1.53922
351.50 1.53672
352.00 1.53564
352.50 1.53467
353.00 1.53382
353.50 1.53301
354.00 1.53202
354.50 1.53115
355.00 1.53051
355.50 1.53022
356.00 1.53006
356.50 1.53012
357.00 1.53032
357.50 1.53064
358.00 1.53108
358.50 1.53147
359.00 1.53188
359.50 1.53240
360.00 1.53304
