phi[deg] B[T]
0.00 1.31384
0.50 1.31339
1.00 1.31305
1.50 1.31280
2.00 1.31267
2.50 1.31254
3.00 1.31252
3.50 1.31261
4.00 1.31281
4.50 1.31325
5.00 1.31381
5.50 1.31461
6.00 1.31586
6.50 1.31722
7.00 1.31842
7.50 1.31953
8.00 1.32073
8.50 1.32204
9.00 1.32379
9.50 1.32672
10.00 1.32896
10.50 1.33057
11.00 1.33108
11.50 1.33165
12.00 1.33230
12.50 1.33302
13.00 1.33258
13.50 1.33167
14.00 1.33061
14.50 1.32905
15.00 1.32757
15.50 1.32616
16.00 1.32483
16.50 1.32352
17.00 1.32253
17.50 1.32207
18.00 1.32009
18.50 1.31766
19.00 1.31529
19.50 1.31297
20.00 1.31118
20.50 1.31055
21.00 1.30997
21.50 1.30446
22.00 1.29784
22.50 1.29125
23.00 1.28469
23.50 1.27882
24.00 1.27485
24.50 1.26405
25.00 1.25131
25.50 1.24000
26.00 1.22871
26.50 1.21745
27.00 1.20621
27.50 1.19351
28.00 1.17969
28.50 1.16591
29.00 1.15216
29.50 1.13846
30.00 1.12480
30.50 1.11119
31.00 1.09799
31.50 1.08567
32.00 1.07400
32.50 1.05976
33.00 1.04478
33.50 1.02981
34.00 1.01485
34.50 0.99990
35.00 0.98523
35.50 0.97150
36.00 0.95505
36.50 0.93681
37.00 0.91905
37.50 0.90169
38.00 0.88435
38.50 0.86605
39.00 0.84777
39.50 0.82932
40.00 0.81097
40.50 0.79289
41.00 0.77498
41.50 0.75735
42.00 0.73976
42.50 0.72225
43.00 0.70546
43.50 0.68876
44.00 0.67243
44.50 0.65655
45.00 0.64072
45.50 0.62615
46.00 0.61156
46.50 0.59804
47.00 0.58536
47.50 0.57282
48.00 0.56153
48.50 0.55114
49.00 0.54310
49.50 0.53339
50.00 0.52218
50.50 0.51503
51.00 0.50817
51.50 0.49876
52.00 0.48932
52.50 0.47986
53.00 0.47008
53.50 0.45645
54.00 0.44541
54.50 0.43428
55.00 0.42301
55.50 0.41161
56.00 0.39811
56.50 0.38360
57.00 0.36582
57.50 0.34787
58.00 0.32978
58.50 0.31046
59.00 0.28660
59.50 0.26262
60.00 0.24274
60.50 0.22390
61.00 0.20498
61.50 0.18595
62.00 0.16442
62.50 0.14196
63.00 0.12630
63.50 0.11198
64.00 0.10068
64.50 0.08938
65.00 0.07807
65.50 0.06722
66.00 0.05999
66.50 0.05275
67.00 0.04549
67.50 0.04001
68.00 0.03465
68.50 0.03027
69.00 0.02731
69.50 0.02435
70.00 0.02138
70.50 0.01841
71.00 0.01560
71.50 0.01386
72.00 0.01247
72.50 0.01111
73.00 0.00975
73.50 0.00838
74.00 0.00706
74.50 0.00634
75.00 0.00562
75.50 0.00490
76.00 0.00427
76.50 0.00366
77.00 0.00325
77.50 0.00292
78.00 0.00261
78.50 0.00229
79.00 0.00198
79.50 0.00168
80.00 0.00151
80.50 0.00134
81.00 0.00117
81.50 0.00104
82.00 0.00092
82.50 0.00081
83.00 0.00071
83.50 0.00063
84.00 0.00055
84.50 0.00050
85.00 0.00045
85.50 0.00039
86.00 0.00035
86.50 0.00030
87.00 0.00028
87.50 0.00025
88.00 0.00023
88.50 0.00021
89.00 0.00020
89.50 0.00019
90.00 0.00018
90.00 0.00018
90.50 0.00019
91.00 0.00020
91.50 0.00021
92.00 0.00023
92.50 0.00025
93.00 0.00028
93.50 0.00030
94.00 0.00035
94.50 0.00039
95.00 0.00045
95.50 0.00050
96.00 0.00055
96.50 0.00063
97.00 0.00071
97.50 0.00081
98.00 0.00092
98.50 0.00104
99.00 0.00117
99.50 0.00134
100.00 0.00151
100.50 0.00168
101.00 0.00198
101.50 0.00229
102.00 0.00261
102.50 0.00292
103.00 0.00325
103.50 0.00366
104.00 0.00427
104.50 0.00490
105.00 0.00562
105.50 0.00634
106.00 0.00706
106.50 0.00838
107.00 0.00975
107.50 0.01111
108.00 0.01247
108.50 0.01386
109.00 0.01560
109.50 0.01841
110.00 0.02138
110.50 0.02435
111.00 0.02731
111.50 0.03027
112.00 0.03465
112.50 0.04001
113.00 0.04549
113.50 0.05275
114.00 0.05999
114.50 0.06722
115.00 0.07807
115.50 0.08938
116.00 0.10068
116.50 0.11198
117.00 0.12630
117.50 0.14196
118.00 0.16442
118.50 0.18595
119.00 0.20498
119.50 0.22390
120.00 0.24274
120.50 0.26262
121.00 0.28660
121.50 0.31046
122.00 0.32978
122.50 0.34787
123.00 0.36582
123.50 0.38360
124.00 0.39811
124.50 0.41161
125.00 0.42301
125.50 0.43428
126.00 0.44541
126.50 0.45645
127.00 0.47008
127.50 0.47986
128.00 0.48932
128.50 0.49876
129.00 0.50817
129.50 0.51503
130.00 0.52218
130.50 0.53339
131.00 0.54310
131.50 0.55114
132.00 0.56153
132.50 0.57282
133.00 0.58536
133.50 0.59804
134.00 0.61156
134.50 0.62615
135.00 0.64072
135.50 0.65655
136.00 0.67243
136.50 0.68876
137.00 0.70546
137.50 0.72225
138.00 0.73976
138.50 0.75735
139.00 0.77498
139.50 0.79289
140.00 0.81097
140.50 0.82932
141.00 0.84777
141.50 0.86605
142.00 0.88435
142.50 0.90169
143.00 0.91905
143.50 0.93681
144.00 0.95505
144.50 0.97150
145.00 0.98523
145.50 0.99990
146.00 1.01485
146.50 1.02981
147.00 1.04478
147.50 1.05976
148.00 1.07400
148.50 1.08567
149.00 1.09799
149.50 1.11119
150.00 1.12480
150.50 1.13846
151.00 1.15216
151.50 1.16591
152.00 1.17969
152.50 1.19351
153.00 1.20621
153.50 1.21745
154.00 1.22871
154.50 1.24000
155.00 1.25131
155.50 1.26405
156.00 1.27485
156.50 1.27882
157.00 1.28469
157.50 1.29125
158.00 1.29784
158.50 1.30446
159.00 1.30997
159.50 1.31055
160.00 1.31118
160.50 1.31297
161.00 1.31529
161.50 1.31766
162.00 1.32009
162.50 1.32207
163.00 1.32253
163.50 1.32352
164.00 1.32483
164.50 1.32616
165.00 1.32757
165.50 1.32905
166.00 1.33061
166.50 1.33167
167.00 1.33258
167.50 1.33302
168.00 1.33230
168.50 1.33165
169.00 1.33108
169.50 1.33057
170.00 1.32896
170.50 1.32672
171.00 1.32379
171.50 1.32204
172.00 1.32073
172.50 1.31953
173.00 1.31842
173.50 1.31722
174.00 1.31586
174.50 1.31461
175.00 1.31381
175.50 1.31325
176.00 1.31281
176.50 1.31261
177.00 1.31252
177.50 1.31254
178.00 1.31267
178.50 1.31280
179.00 1.31305
179.50 1.31339
180.00 1.31384
180.00 1.31384
180.50 1.31339
181.00 1.31305
181.50 1.31280
182.00 1.31267
182.50 1.31254
183.00 1.31252
183.50 1.31261
184.00 1.31281
184.50 1.31325
185.00 1.31381
185.50 1.31461
186.00 1.31586
186.50 1.31722
187.00 1.31842
187.50 1.31953
188.00 1.32073
188.50 1.32204
189.00 1.32379
189.50 1.32672
190.00 1.32896
190.50 1.33057
191.00 1.33108
191.50 1.33165
192.00 1.33230
192.50 1.33302
193.00 1.33258
193.50 1.33167
194.00 1.33061
194.50 1.32905
195.00 1.32757
195.50 1.32616
196.00 1.32483
196.50 1.32352
197.00 1.32253
197.50 1.32207
198.00 1.32009
198.50 1.31766
199.00 1.31529
199.50 1.31297
200.00 1.31118
200.50 1.31055
201.00 1.30997
201.50 1.30446
202.00 1.29784
202.50 1.29125
203.00 1.28469
203.50 1.27882
204.00 1.27485
204.50 1.26405
205.00 1.25131
205.50 1.24000
206.00 1.22871
206.50 1.21745
207.00 1.20621
207.50 1.19351
208.00 1.17969
208.50 1.16591
209.00 1.15216
209.50 1.13846
210.00 1.12480
210.50 1.11119
211.00 1.09799
211.50 1.08567
212.00 1.07400
212.50 1.05976
213.00 1.04478
213.50 1.02981
214.00 1.01485
214.50 0.99990
215.00 0.98523
215.50 0.97150
216.00 0.95505
216.50 0.93681
217.00 0.91905
217.50 0.90169
218.00 0.88435
218.50 0.86605
219.00 0.84777
219.50 0.82932
220.00 0.81097
220.50 0.79289
221.00 0.77498
221.50 0.75735
222.00 0.73976
222.50 0.72225
223.00 0.70546
223.50 0.68876
224.00 0.67243
224.50 0.65655
225.00 0.64072
225.50 0.62615
226.00 0.61156
226.50 0.59804
227.00 0.58536
227.50 0.57282
228.00 0.56153
228.50 0.55114
229.00 0.54310
229.50 0.53339
230.00 0.52218
230.50 0.51503
231.00 0.50817
231.50 0.49876
232.00 0.48932
232.50 0.47986
233.00 0.47008
233.50 0.45645
234.00 0.44541
234.50 0.43428
235.00 0.42301
235.50 0.41161
236.00 0.39811
236.50 0.38360
237.00 0.36582
237.50 0.34787
238.00 0.32978
238.50 0.31046
239.00 0.28660
239.50 0.26262
240.00 0.24274
240.50 0.22390
241.00 0.20498
241.50 0.18595
242.00 0.16442
242.50 0.14196
243.00 0.12630
243.50 0.11198
244.00 0.10068
244.50 0.08938
245.00 0.07807
245.50 0.06722
246.00 0.05999
246.50 0.05275
247.00 0.04549
247.50 0.04001
248.00 0.03465
248.50 0.03027
249.00 0.02731
249.50 0.02435
250.00 0.02138
250.50 0.01841
251.00 0.01560
251.50 0.01386
252.00 0.01247
252.50 0.01111
253.00 0.00975
253.50 0.00838
254.00 0.00706
254.50 0.00634
255.00 0.00562
255.50 0.00490
256.00 0.00427
256.50 0.00366
257.00 0.00325
257.50 0.00292
258.00 0.00261
258.50 0.00229
259.00 0.00198
259.50 0.00168
260.00 0.00151
260.50 0.00134
261.00 0.00117
261.50 0.00104
262.00 0.00092
262.50 0.00081
263.00 0.00071
263.50 0.00063
264.00 0.00055
264.50 0.00050
265.00 0.00045
265.50 0.00039
266.00 0.00035
266.50 0.00030
267.00 0.00028
267.50 0.00025
268.00 0.00023
268.50 0.00021
269.00 0.00020
269.50 0.00019
270.00 0.00018
270.00 0.00018
270.50 0.00019
271.00 0.00020
271.50 0.00021
272.00 0.00023
272.50 0.00025
273.00 0.00028
273.50 0.00030
274.00 0.00035
274.50 0.00039
275.00 0.00045
275.50 0.00050
276.00 0.00055
276.50 0.00063
277.00 0.00071
277.50 0.00081
278.00 0.00092
278.50 0.00104
279.00 0.00117
279.50 0.00134
280.00 0.00151
280.50 0.00168
281.00 0.00198
281.50 0.00229
282.00 0.00261
282.50 0.00292
283.00 0.00325
283.50 0.00366
284.00 0.00427
284.50 0.00490
285.00 0.00562
285.50 0.00634
286.00 0.00706
286.50 0.00838
287.00 0.00975
287.50 0.01111
288.00 0.01247
288.50 0.01386
289.00 0.01560
289.50 0.01841
290.00 0.02138
290.50 0.02435
291.00 0.02731
291.50 0.03027
292.00 0.03465
292.50 0.04001
293.00 0.04549
293.50 0.05275
294.00 0.05999
294.50 0.06722
295.00 0.07807
295.50 0.08938
296.00 0.10068
296.50 0.11198
297.00 0.12630
297.50 0.14196
298.00 0.16442
298.50 0.18595
299.00 0.20498
299.50 0.22390
300.00 0.24274
300.50 0.26262
301.00 0.28660
301.50 0.31046
302.00 0.32978
302.50 0.34787
303.00 0.36582
303.50 0.38360
304.00 0.39811
304.50 0.41161
305.00 0.42301
305.50 0.43428
306.00 0.44541
306.50 0.45645
307.00 0.47008
307.50 0.47986
308.00 0.48932
308.50 0.49876
309.00 0.50817
309.50 0.51503
310.00 0.52218
310.50 0.53339
311.00 0.54310
311.50 0.55114
312.00 0.56153
312.50 0.57282
313.00 0.58536
313.50 0.59804
314.00 0.61156
314.50 0.62615
315.00 0.64072
315.50 0.65655
316.00 0.67243
316.50 0.68876
317.00 0.70546
317.50 0.72225
318.00 0.73976
318.50 0.75735
319.00 0.77498
319.50 0.79289
320.00 0.81097
320.50 0.82932
321.00 0.84777
321.50 0.86605
322.00 0.88435
322.50 0.90169
323.00 0.91905
323.50 0.93681
324.00 0.95505
324.50 0.97150
325.00 0.98523
325.50 0.99990
326.00 1.01485
326.50 1.02981
327.00 1.04478
327.50 1.05976
328.00 1.07400
328.50 1.08567
329.00 1.09799
329.50 1.11119
330.00 1.12480
330.50 1.13846
331.00 1.15216
331.50 1.16591
332.00 1.17969
332.50 1.19351
333.00 1.20621
333.50 1.21745
334.00 1.22871
334.50 1.24000
335.00 1.25131
335.50 1.26405
336.00 1.27485
336.50 1.27882
337.00 1.28469
337.50 1.29125
338.00 1.29784
338.50 1.30446
339.00 1.30997
339.50 1.31055
340.00 1.31118
340.50 1.31297
341.00 1.31529
341.50 1.31766
342.00 1.32009
342.50 1.32207
343.00 1.32253
343.50 1.32352
344.00 1.32483
344.50 1.32616
345.00 1.32757
345.50 1.32905
346.00 1.33061
346.50 1.33167
347.00 1.33258
347.50 1.33302
348.00 1.33230
348.50 1.33165
349.00 1.33108
349.50 1.33057
350.00 1.32896
350.50 1.32672
351.00 1.32379
351.50 1.32204
352.00 1.32073
352.50 1.31953
353.00 1.31842
353.50 1.31722
354.00 1.31586
354.50 1.31461
355.00 1.31381
355.50 1.31325
356.00 1.31281
356.50 1.31261
357.00 1.31252
357.50 1.31254
358.00 1.31267
358.50 1.31280
359.00 1.31305
359.50 1.31339
360.00 1.31384
