phi[deg] B[T]
0.00 1.96801
0.50 1.96799
1.00 1.96812
1.50 1.96840
2.00 1.96884
2.50 1.96949
3.00 1.96978
3.50 1.97090
4.00 1.97217
4.50 1.97357
5.00 1.97512
5.50 1.97681
6.00 1.97880
6.50 1.98093
7.00 1.98321
7.50 1.98408
8.00 1.98494
8.50 1.98628
9.00 1.98820
9.50 1.99025
10.00 1.99242
10.50 1.99217
11.00 1.99118
11.50 1.99091
12.00 1.99108
12.50 1.99136
13.00 1.99174
13.50 1.99200
14.00 1.99087
14.50 1.98890
15.00 1.98448
15.50 1.98076
16.00 1.97883
16.50 1.97697
17.00 1.97519
17.50 1.97235
18.00 1.96614
18.50 1.95999
19.00 1.95417
19.50 1.95069
20.00 1.94726
20.50 1.94205
21.00 1.93410
21.50 1.92618
22.00 1.91710
22.50 1.90657
23.00 1.89605
23.50 1.88555
24.00 1.87194
24.50 1.85764
25.00 1.84336
25.50 1.82896
26.00 1.81186
26.50 1.79517
27.00 1.77861
27.50 1.76207
28.00 1.74458
28.50 1.72587
29.00 1.70701
29.50 1.68704
30.00 1.66708
30.50 1.64714
31.00 1.62534
31.50 1.60253
32.00 1.58182
32.50 1.56111
33.00 1.54040
33.50 1.51845
34.00 1.49488
34.50 1.47131
35.00 1.44689
35.50 1.42158
36.00 1.39626
36.50 1.37094
37.00 1.34536
37.50 1.31917
38.00 1.29353
38.50 1.26789
39.00 1.24226
39.50 1.21646
40.00 1.19054
40.50 1.16565
41.00 1.14076
41.50 1.11586
42.00 1.09065
42.50 1.06645
43.00 1.04293
43.50 1.01951
44.00 0.99638
44.50 0.97325
45.00 0.94989
45.50 0.92750
46.00 0.90562
46.50 0.88372
47.00 0.86262
47.50 0.84217
48.00 0.82065
48.50 0.79830
49.00 0.77812
49.50 0.75825
50.00 0.73803
50.50 0.71661
51.00 0.69737
51.50 0.67808
52.00 0.65874
52.50 0.63922
53.00 0.61675
53.50 0.59602
54.00 0.57603
54.50 0.55597
55.00 0.53585
55.50 0.51544
56.00 0.49312
56.50 0.47288
57.00 0.45256
57.50 0.43216
58.00 0.41174
58.50 0.39210
59.00 0.37239
59.50 0.35066
60.00 0.32885
60.50 0.30698
61.00 0.28505
61.50 0.26355
62.00 0.24755
62.50 0.23173
63.00 0.21585
63.50 0.19992
64.00 0.18394
64.50 0.16718
65.00 0.15617
65.50 0.14537
66.00 0.13457
66.50 0.12370
67.00 0.11272
67.50 0.10173
68.00 0.09298
68.50 0.08693
69.00 0.08086
69.50 0.07480
70.00 0.06862
70.50 0.06243
71.00 0.05624
71.50 0.05042
72.00 0.04682
72.50 0.04346
73.00 0.04010
73.50 0.03674
74.00 0.03339
74.50 0.03004
75.00 0.02764
75.50 0.02578
76.00 0.02393
76.50 0.02208
77.00 0.02023
77.50 0.01831
78.00 0.01639
78.50 0.01515
79.00 0.01416
79.50 0.01317
80.00 0.01218
80.50 0.01119
81.00 0.01020
81.50 0.00924
82.00 0.00855
82.50 0.00798
83.00 0.00744
83.50 0.00691
84.00 0.00637
84.50 0.00589
85.00 0.00561
85.50 0.00533
86.00 0.00504
86.50 0.00475
87.00 0.00445
87.50 0.00435
88.00 0.00424
88.50 0.00412
89.00 0.00400
89.50 0.00388
90.00 0.00376
90.00 0.00376
90.50 0.00388
91.00 0.00400
91.50 0.00412
92.00 0.00424
92.50 0.00435
93.00 0.00445
93.50 0.00475
94.00 0.00504
94.50 0.00533
95.00 0.00561
95.50 0.00589
96.00 0.00637
96.50 0.00691
97.00 0.00744
97.50 0.00798
98.00 0.00855
98.50 0.00924
99.00 0.01020
99.50 0.01119
100.00 0.01218
100.50 0.01317
101.00 0.01416
101.50 0.01515
102.00 0.01639
102.50 0.01831
103.00 0.02023
103.50 0.02208
104.00 0.02393
104.50 0.02578
105.00 0.02764
105.50 0.03004
106.00 0.03339
106.50 0.03674
107.00 0.04010
107.50 0.04346
108.00 0.04682
108.50 0.05042
109.00 0.05624
109.50 0.06243
110.00 0.06862
110.50 0.07480
111.00 0.08086
111.50 0.08693
112.00 0.09298
112.50 0.10173
113.00 0.11272
113.50 0.12370
114.00 0.13457
114.50 0.14537
115.00 0.15617
115.50 0.16718
116.00 0.18394
116.50 0.19992
117.00 0.21585
117.50 0.23173
118.00 0.24755
118.50 0.26355
119.00 0.28505
119.50 0.30698
120.00 0.32885
120.50 0.35066
121.00 0.37239
121.50 0.39210
122.00 0.41174
122.50 0.43216
123.00 0.45256
123.50 0.47288
124.00 0.49312
124.50 0.51544
125.00 0.53585
125.50 0.55597
126.00 0.57603
126.50 0.59602
127.00 0.61675
127.50 0.63922
128.00 0.65874
128.50 0.67808
129.00 0.69737
129.50 0.71661
130.00 0.73803
130.50 0.75825
131.00 0.77812
131.50 0.79830
132.00 0.82065
132.50 0.84217
133.00 0.86262
133.50 0.88372
134.00 0.90562
134.50 0.92750
135.00 0.94989
135.50 0.97325
136.00 0.99638
136.50 1.01951
137.00 1.04293
137.50 1.06645
138.00 1.09065
138.50 1.11586
139.00 1.14076
139.50 1.16565
140.00 1.19054
140.50 1.21646
141.00 1.24226
141.50 1.26789
142.00 1.29353
142.50 1.31917
143.00 1.34536
143.50 1.37094
144.00 1.39626
144.50 1.42158
145.00 1.44689
145.50 1.47131
146.00 1.49488
146.50 1.51845
147.00 1.54040
147.50 1.56111
148.00 1.58182
148.50 1.60253
149.00 1.62534
149.50 1.64714
150.00 1.66708
150.50 1.68704
151.00 1.70701
151.50 1.72587
152.00 1.74458
152.50 1.76207
153.00 1.77861
153.50 1.79517
154.00 1.81186
154.50 1.82896
155.00 1.84336
155.50 1.85764
156.00 1.87194
156.50 1.88555
157.00 1.89605
157.50 1.90657
158.00 1.91710
158.50 1.92618
159.00 1.93410
159.50 1.94205
160.00 1.94726
160.50 1.95069
161.00 1.95417
161.50 1.95999
162.00 1.96614
162.50 1.97235
163.00 1.97519
163.50 1.97697
164.00 1.97883
164.50 1.98076
165.00 1.98448
165.50 1.98890
166.00 1.99087
166.50 1.99200
167.00 1.99174
167.50 1.99136
168.00 1.99108
168.50 1.99091
169.00 1.99118
169.50 1.99217
170.00 1.99242
170.50 1.99025
171.00 1.98820
171.50 1.98628
172.00 1.98494
172.50 1.98408
173.00 1.98321
173.50 1.98093
174.00 1.97880
174.50 1.97681
175.00 1.97512
175.50 1.97357
176.00 1.97217
176.50 1.97090
177.00 1.96978
177.50 1.96949
178.00 1.96884
178.50 1.96840
179.00 1.96812
179.50 1.96799
180.00 1.96801
180.00 1.96801
180.50 1.96799
181.00 1.96812
181.50 1.96840
182.00 1.96884
182.50 1.96949
183.00 1.96978
183.50 1.97090
184.00 1.97217
184.50 1.97357
185.00 1.97512
185.50 1.97681
186.00 1.97880
186.50 1.98093
187.00 1.98321
187.50 1.98408
188.00 1.98494
188.50 1.98628
189.00 1.98820
189.50 1.99025
190.00 1.99242
190.50 1.99217
191.00 1.99118
191.50 1.99091
192.00 1.99108
192.50 1.99136
193.00 1.99174
193.50 1.99200
194.00 1.99087
194.50 1.98890
195.00 1.98448
195.50 1.98076
196.00 1.97883
196.50 1.97697
197.00 1.97519
197.50 1.97235
198.00 1.96614
198.50 1.95999
199.00 1.95417
199.50 1.95069
200.00 1.94726
200.50 1.94205
201.00 1.93410
201.50 1.92618
202.00 1.91710
202.50 1.90657
203.00 1.89605
203.50 1.88555
204.00 1.87194
204.50 1.85764
205.00 1.84336
205.50 1.82896
206.00 1.81186
206.50 1.79517
207.00 1.77861
207.50 1.76207
208.00 1.74458
208.50 1.72587
209.00 1.70701
209.50 1.68704
210.00 1.66708
210.50 1.64714
211.00 1.62534
211.50 1.60253
212.00 1.58182
212.50 1.56111
213.00 1.54040
213.50 1.51845
214.00 1.49488
214.50 1.47131
215.00 1.44689
215.50 1.42158
216.00 1.39626
216.50 1.37094
217.00 1.34536
217.50 1.31917
218.00 1.29353
218.50 1.26789
219.00 1.24226
219.50 1.21646
220.00 1.19054
220.50 1.16565
221.00 1.14076
221.50 1.11586
222.00 1.09065
222.50 1.06645
223.00 1.04293
223.50 1.01951
224.00 0.99638
224.50 0.97325
225.00 0.94989
225.50 0.92750
226.00 0.90562
226.50 0.88372
227.00 0.86262
227.50 0.84217
228.00 0.82065
228.50 0.79830
229.00 0.77812
229.50 0.75825
230.00 0.73803
230.50 0.71661
231.00 0.69737
231.50 0.67808
232.00 0.65874
232.50 0.63922
233.00 0.61675
233.50 0.59602
234.00 0.57603
234.50 0.55597
235.00 0.53585
235.50 0.51544
236.00 0.49312
236.50 0.47288
237.00 0.45256
237.50 0.43216
238.00 0.41174
238.50 0.39210
239.00 0.37239
239.50 0.35066
240.00 0.32885
240.50 0.30698
241.00 0.28505
241.50 0.26355
242.00 0.24755
242.50 0.23173
243.00 0.21585
243.50 0.19992
244.00 0.18394
244.50 0.16718
245.00 0.15617
245.50 0.14537
246.00 0.13457
246.50 0.12370
247.00 0.11272
247.50 0.10173
248.00 0.09298
248.50 0.08693
249.00 0.08086
249.50 0.07480
250.00 0.06862
250.50 0.06243
251.00 0.05624
251.50 0.05042
252.00 0.04682
252.50 0.04346
253.00 0.04010
253.50 0.03674
254.00 0.03339
254.50 0.03004
255.00 0.02764
255.50 0.02578
256.00 0.02393
256.50 0.02208
257.00 0.02023
257.50 0.01831
258.00 0.01639
258.50 0.01515
259.00 0.01416
259.50 0.01317
260.00 0.01218
260.50 0.01119
261.00 0.01020
261.50 0.00924
262.00 0.00855
262.50 0.00798
263.00 0.00744
263.50 0.00691
264.00 0.00637
264.50 0.00589
265.00 0.00561
265.50 0.00533
266.00 0.00504
266.50 0.00475
267.00 0.00445
267.50 0.00435
268.00 0.00424
268.50 0.00412
269.00 0.00400
269.50 0.00388
270.00 0.00376
270.00 0.00376
270.50 0.00388
271.00 0.00400
271.50 0.00412
272.00 0.00424
272.50 0.00435
273.00 0.00445
273.50 0.00475
274.00 0.00504
274.50 0.00533
275.00 0.00561
275.50 0.00589
276.00 0.00637
276.50 0.00691
277.00 0.00744
277.50 0.00798
278.00 0.00855
278.50 0.00924
279.00 0.01020
279.50 0.01119
280.00 0.01218
280.50 0.01317
281.00 0.01416
281.50 0.01515
282.00 0.01639
282.50 0.01831
283.00 0.02023
283.50 0.02208
284.00 0.02393
284.50 0.02578
285.00 0.02764
285.50 0.03004
286.00 0.03339
286.50 0.03674
287.00 0.04010
287.50 0.04346
288.00 0.04682
288.50 0.05042
289.00 0.05624
289.50 0.06243
290.00 0.06862
290.50 0.07480
291.00 0.08086
291.50 0.08693
292.00 0.09298
292.50 0.10173
293.00 0.11272
293.50 0.12370
294.00 0.13457
294.50 0.14537
295.00 0.15617
295.50 0.16718
296.00 0.18394
296.50 0.19992
297.00 0.21585
297.50 0.23173
298.00 0.24755
298.50 0.26355
299.00 0.28505
299.50 0.30698
300.00 0.32885
300.50 0.35066
301.00 0.37239
301.50 0.39210
302.00 0.41174
302.50 0.43216
303.00 0.45256
303.50 0.47288
304.00 0.49312
304.50 0.51544
305.00 0.53585
305.50 0.55597
306.00 0.57603
306.50 0.59602
307.00 0.61675
307.50 0.63922
308.00 0.65874
308.50 0.67808
309.00 0.69737
309.50 0.71661
310.00 0.73803
310.50 0.75825
311.00 0.77812
311.50 0.79830
312.00 0.82065
312.50 0.84217
313.00 0.86262
313.50 0.88372
314.00 0.90562
314.50 0.92750
315.00 0.94989
315.50 0.97325
316.00 0.99638
316.50 1.01951
317.00 1.04293
317.50 1.06645
318.00 1.09065
318.50 1.11586
319.00 1.14076
319.50 1.16565
320.00 1.19054
320.50 1.21646
321.00 1.24226
321.50 1.26789
322.00 1.29353
322.50 1.31917
323.00 1.34536
323.50 1.37094
324.00 1.39626
324.50 1.42158
325.00 1.44689
325.50 1.47131
326.00 1.49488
326.50 1.51845
327.00 1.54040
327.50 1.56111
328.00 1.58182
328.50 1.60253
329.00 1.62534
329.50 1.64714
330.00 1.66708
330.50 1.68704
331.00 1.70701
331.50 1.72587
332.00 1.74458
332.50 1.76207
333.00 1.77861
333.50 1.79517
334.00 1.81186
334.50 1.82896
335.00 1.84336
335.50 1.85764
336.00 1.87194
336.50 1.88555
337.00 1.89605
337.50 1.90657
338.00 1.91710
338.50 1.92618
339.00 1.93410
339.50 1.94205
340.00 1.94726
340.50 1.95069
341.00 1.95417
341.50 1.95999
342.00 1.96614
342.50 1.97235
343.00 1.97519
343.50 1.97697
344.00 1.97883
344.50 1.98076
345.00 1.98448
345.50 1.98890
346.00 1.99087
346.50 1.99200
347.00 1.99174
347.50 1.99136
348.00 1.99108
348.50 1.99091
349.00 1.99118
349.50 1.99217
350.00 1.99242
350.50 1.99025
351.00 1.98820
351.50 1.98628
352.00 1.98494
352.50 1.98408
353.00 1.98321
353.50 1.98093
354.00 1.97880
354.50 1.97681
355.00 1.97512
355.50 1.97357
356.00 1.97217
356.50 1.97090
357.00 1.96978
357.50 1.96949
358.00 1.96884
358.50 1.96840
359.00 1.96812
359.50 1.96799
360.00 1.96801
