phi[deg] B[T]
0.00 1.35651
0.50 1.35586
1.00 1.35551
1.50 1.35544
2.00 1.35532
2.50 1.35465
3.00 1.35394
3.50 1.35278
4.00 1.35172
4.50 1.35072
5.00 1.34977
5.50 1.34730
6.00 1.34495
6.50 1.34351
7.00 1.34199
7.50 1.33886
8.00 1.33575
8.50 1.33267
9.00 1.32871
9.50 1.32218
10.00 1.31569
10.50 1.31093
11.00 1.30613
11.50 1.30128
12.00 1.29644
12.50 1.28719
13.00 1.27658
13.50 1.26590
14.00 1.25518
14.50 1.24264
15.00 1.22800
15.50 1.21475
16.00 1.20135
16.50 1.18796
17.00 1.17312
17.50 1.15201
18.00 1.13075
18.50 1.10971
19.00 1.08911
19.50 1.06192
20.00 1.03153
20.50 1.00747
21.00 0.98314
21.50 0.95850
22.00 0.93191
22.50 0.89904
23.00 0.86347
23.50 0.82763
24.00 0.79152
24.50 0.75563
25.00 0.72127
25.50 0.68684
26.00 0.65214
26.50 0.61718
27.00 0.58196
27.50 0.53598
28.00 0.49260
28.50 0.45311
29.00 0.41919
29.50 0.38947
30.00 0.35968
30.50 0.32984
31.00 0.30031
31.50 0.27274
32.00 0.24510
32.50 0.21740
33.00 0.19866
33.50 0.18219
34.00 0.16571
34.50 0.14951
35.00 0.13343
35.50 0.11734
36.00 0.10712
36.50 0.09751
37.00 0.08878
37.50 0.08096
38.00 0.07314
38.50 0.06533
39.00 0.05752
39.50 0.05108
40.00 0.04581
40.50 0.04145
41.00 0.03785
41.50 0.03424
42.00 0.03064
42.50 0.02704
43.00 0.02456
43.50 0.02241
44.00 0.02027
44.50 0.01812
45.00 0.01597
45.50 0.01467
46.00 0.01337
46.50 0.01206
47.00 0.01076
47.50 0.00946
48.00 0.00869
48.50 0.00795
49.00 0.00722
49.50 0.00648
50.00 0.00574
50.50 0.00515
51.00 0.00463
51.50 0.00420
52.00 0.00387
52.50 0.00354
53.00 0.00320
53.50 0.00287
54.00 0.00255
54.50 0.00224
55.00 0.00208
55.50 0.00194
56.00 0.00179
56.50 0.00164
57.00 0.00150
57.50 0.00135
58.00 0.00120
58.50 0.00108
59.00 0.00102
59.50 0.00095
60.00 0.00089
60.50 0.00082
61.00 0.00075
61.50 0.00069
62.00 0.00062
62.50 0.00058
63.00 0.00055
63.50 0.00052
64.00 0.00050
64.50 0.00047
65.00 0.00045
65.50 0.00042
66.00 0.00040
66.50 0.00038
67.00 0.00036
67.50 0.00035
68.00 0.00034
68.50 0.00032
69.00 0.00031
69.50 0.00030
70.00 0.00029
70.50 0.00028
71.00 0.00027
71.50 0.00027
72.00 0.00026
72.50 0.00025
73.00 0.00024
73.50 0.00023
74.00 0.00022
74.50 0.00022
75.00 0.00021
75.50 0.00020
76.00 0.00020
76.50 0.00019
77.00 0.00018
77.50 0.00017
78.00 0.00017
78.50 0.00016
79.00 0.00015
79.50 0.00015
80.00 0.00014
80.50 0.00013
81.00 0.00013
81.50 0.00012
82.00 0.00011
82.50 0.00011
83.00 0.00010
83.50 0.00009
84.00 0.00009
84.50 0.00008
85.00 0.00007
85.50 0.00007
86.00 0.00006
86.50 0.00005
87.00 0.00004
87.50 0.00004
88.00 0.00003
88.50 0.00003
89.00 0.00003
89.50 0.00002
90.00 0.00002
90.00 0.00002
90.50 0.00002
91.00 0.00003
91.50 0.00003
92.00 0.00003
92.50 0.00004
93.00 0.00004
93.50 0.00005
94.00 0.00006
94.50 0.00007
95.00 0.00007
95.50 0.00008
96.00 0.00009
96.50 0.00009
97.00 0.00010
97.50 0.00011
98.00 0.00011
98.50 0.00012
99.00 0.00013
99.50 0.00013
100.00 0.00014
100.50 0.00015
101.00 0.00015
101.50 0.00016
102.00 0.00017
102.50 0.00017
103.00 0.00018
103.50 0.00019
104.00 0.00020
104.50 0.00020
105.00 0.00021
105.50 0.00022
106.00 0.00022
106.50 0.00023
107.00 0.00024
107.50 0.00025
108.00 0.00026
108.50 0.00027
109.00 0.00027
109.50 0.00028
110.00 0.00029
110.50 0.00030
111.00 0.00031
111.50 0.00032
112.00 0.00034
112.50 0.00035
113.00 0.00036
113.50 0.00038
114.00 0.00040
114.50 0.00042
115.00 0.00045
115.50 0.00047
116.00 0.00050
116.50 0.00052
117.00 0.00055
117.50 0.00058
118.00 0.00062
118.50 0.00069
119.00 0.00075
119.50 0.00082
120.00 0.00089
120.50 0.00095
121.00 0.00102
121.50 0.00108
122.00 0.00120
122.50 0.00135
123.00 0.00150
123.50 0.00164
124.00 0.00179
124.50 0.00194
125.00 0.00208
125.50 0.00224
126.00 0.00255
126.50 0.00287
127.00 0.00320
127.50 0.00354
128.00 0.00387
128.50 0.00420
129.00 0.00463
129.50 0.00515
130.00 0.00574
130.50 0.00648
131.00 0.00722
131.50 0.00795
132.00 0.00869
132.50 0.00946
133.00 0.01076
133.50 0.01206
134.00 0.01337
134.50 0.01467
135.00 0.01597
135.50 0.01812
136.00 0.02027
136.50 0.02241
137.00 0.02456
137.50 0.02704
138.00 0.03064
138.50 0.03424
139.00 0.03785
139.50 0.04145
140.00 0.04581
140.50 0.05108
141.00 0.05752
141.50 0.06533
142.00 0.07314
142.50 0.08096
143.00 0.08878
143.50 0.09751
144.00 0.10712
144.50 0.11734
145.00 0.13343
145.50 0.14951
146.00 0.16571
146.50 0.18219
147.00 0.19866
147.50 0.21740
148.00 0.24510
148.50 0.27274
149.00 0.30031
149.50 0.32984
150.00 0.35968
150.50 0.38947
151.00 0.41919
151.50 0.45311
152.00 0.49260
152.50 0.53598
153.00 0.58196
153.50 0.61718
154.00 0.65214
154.50 0.68684
155.00 0.72127
155.50 0.75563
156.00 0.79152
156.50 0.82763
157.00 0.86347
157.50 0.89904
158.00 0.93191
158.50 0.95850
159.00 0.98314
159.50 1.00747
160.00 1.03153
160.50 1.06192
161.00 1.08911
161.50 1.10971
162.00 1.13075
162.50 1.15201
163.00 1.17312
163.50 1.18796
164.00 1.20135
164.50 1.21475
165.00 1.22800
165.50 1.24264
166.00 1.25518
166.50 1.26590
167.00 1.27658
167.50 1.28719
168.00 1.29644
168.50 1.30128
169.00 1.30613
169.50 1.31093
170.00 1.31569
170.50 1.32218
171.00 1.32871
171.50 1.33267
172.00 1.33575
172.50 1.33886
173.00 1.34199
173.50 1.34351
174.00 1.34495
174.50 1.34730
175.00 1.34977
175.50 1.35072
176.00 1.35172
176.50 1.35278
177.00 1.35394
177.50 1.35465
178.00 1.35532
178.50 1.35544
179.00 1.35551
179.50 1.35586
180.00 1.35651
180.00 1.35651
180.50 1.35586
181.00 1.35551
181.50 1.35544
182.00 1.35532
182.50 1.35465
183.00 1.35394
183.50 1.35278
184.00 1.35172
184.50 1.35072
185.00 1.34977
185.50 1.34730
186.00 1.34495
186.50 1.34351
187.00 1.34199
187.50 1.33886
188.00 1.33575
188.50 1.33267
189.00 1.32871
189.50 1.32218
190.00 1.31569
190.50 1.31093
191.00 1.30613
191.50 1.30128
192.00 1.29644
192.50 1.28719
193.00 1.27658
193.50 1.26590
194.00 1.25518
194.50 1.24264
195.00 1.22800
195.50 1.21475
196.00 1.20135
196.50 1.18796
197.00 1.17312
197.50 1.15201
198.00 1.13075
198.50 1.10971
199.00 1.08911
199.50 1.06192
200.00 1.03153
200.50 1.00747
201.00 0.98314
201.50 0.95850
202.00 0.93191
202.50 0.89904
203.00 0.86347
203.50 0.82763
204.00 0.79152
204.50 0.75563
205.00 0.72127
205.50 0.68684
206.00 0.65214
206.50 0.61718
207.00 0.58196
207.50 0.53598
208.00 0.49260
208.50 0.45311
209.00 0.41919
209.50 0.38947
210.00 0.35968
210.50 0.32984
211.00 0.30031
211.50 0.27274
212.00 0.24510
212.50 0.21740
213.00 0.19866
213.50 0.18219
214.00 0.16571
214.50 0.14951
215.00 0.13343
215.50 0.11734
216.00 0.10712
216.50 0.09751
217.00 0.08878
217.50 0.08096
218.00 0.07314
218.50 0.06533
219.00 0.05752
219.50 0.05108
220.00 0.04581
220.50 0.04145
221.00 0.03785
221.50 0.03424
222.00 0.03064
222.50 0.02704
223.00 0.02456
223.50 0.02241
224.00 0.02027
224.50 0.01812
225.00 0.01597
225.50 0.01467
226.00 0.01337
226.50 0.01206
227.00 0.01076
227.50 0.00946
228.00 0.00869
228.50 0.00795
229.00 0.00722
229.50 0.00648
230.00 0.00574
230.50 0.00515
231.00 0.00463
231.50 0.00420
232.00 0.00387
232.50 0.00354
233.00 0.00320
233.50 0.00287
234.00 0.00255
234.50 0.00224
235.00 0.00208
235.50 0.00194
236.00 0.00179
236.50 0.00164
237.00 0.00150
237.50 0.00135
238.00 0.00120
238.50 0.00108
239.00 0.00102
239.50 0.00095
240.00 0.00089
240.50 0.00082
241.00 0.00075
241.50 0.00069
242.00 0.00062
242.50 0.00058
243.00 0.00055
243.50 0.00052
244.00 0.00050
244.50 0.00047
245.00 0.00045
245.50 0.00042
246.00 0.00040
246.50 0.00038
247.00 0.00036
247.50 0.00035
248.00 0.00034
248.50 0.00032
249.00 0.00031
249.50 0.00030
250.00 0.00029
250.50 0.00028
251.00 0.00027
251.50 0.00027
252.00 0.00026
252.50 0.00025
253.00 0.00024
253.50 0.00023
254.00 0.00022
254.50 0.00022
255.00 0.00021
255.50 0.00020
256.00 0.00020
256.50 0.00019
257.00 0.00018
257.50 0.00017
258.00 0.00017
258.50 0.00016
259.00 0.00015
259.50 0.00015
260.00 0.00014
260.50 0.00013
261.00 0.00013
261.50 0.00012
262.00 0.00011
262.50 0.00011
263.00 0.00010
263.50 0.00009
264.00 0.00009
264.50 0.00008
265.00 0.00007
265.50 0.00007
266.00 0.00006
266.50 0.00005
267.00 0.00004
267.50 0.00004
268.00 0.00003
268.50 0.00003
269.00 0.00003
269.50 0.00002
270.00 0.00002
270.00 0.00002
270.50 0.00002
271.00 0.00003
271.50 0.00003
272.00 0.00003
272.50 0.00004
273.00 0.00004
273.50 0.00005
274.00 0.00006
274.50 0.00007
275.00 0.00007
275.50 0.00008
276.00 0.00009
276.50 0.00009
277.00 0.00010
277.50 0.00011
278.00 0.00011
278.50 0.00012
279.00 0.00013
279.50 0.00013
280.00 0.00014
280.50 0.00015
281.00 0.00015
281.50 0.00016
282.00 0.00017
282.50 0.00017
283.00 0.00018
283.50 0.00019
284.00 0.00020
284.50 0.00020
285.00 0.00021
285.50 0.00022
286.00 0.00022
286.50 0.00023
287.00 0.00024
287.50 0.00025
288.00 0.00026
288.50 0.00027
289.00 0.00027
289.50 0.00028
290.00 0.00029
290.50 0.00030
291.00 0.00031
291.50 0.00032
292.00 0.00034
292.50 0.00035
293.00 0.00036
293.50 0.00038
294.00 0.00040
294.50 0.00042
295.00 0.00045
295.50 0.00047
296.00 0.00050
296.50 0.00052
297.00 0.00055
297.50 0.00058
298.00 0.00062
298.50 0.00069
299.00 0.00075
299.50 0.00082
300.00 0.00089
300.50 0.00095
301.00 0.00102
301.50 0.00108
302.00 0.00120
302.50 0.00135
303.00 0.00150
303.50 0.00164
304.00 0.00179
304.50 0.00194
305.00 0.00208
305.50 0.00224
306.00 0.00255
306.50 0.00287
307.00 0.00320
307.50 0.00354
308.00 0.00387
308.50 0.00420
309.00 0.00463
309.50 0.00515
310.00 0.00574
310.50 0.00648
311.00 0.00722
311.50 0.00795
312.00 0.00869
312.50 0.00946
313.00 0.01076
313.50 0.01206
314.00 0.01337
314.50 0.01467
315.00 0.01597
315.50 0.01812
316.00 0.02027
316.50 0.02241
317.00 0.02456
317.50 0.02704
318.00 0.03064
318.50 0.03424
319.00 0.03785
319.50 0.04145
320.00 0.04581
320.50 0.05108
321.00 0.05752
321.50 0.06533
322.00 0.07314
322.50 0.08096
323.00 0.08878
323.50 0.09751
324.00 0.10712
324.50 0.11734
325.00 0.13343
325.50 0.14951
326.00 0.16571
326.50 0.18219
327.00 0.19866
327.50 0.21740
328.00 0.24510
328.50 0.27274
329.00 0.30031
329.50 0.32984
330.00 0.35968
330.50 0.38947
331.00 0.41919
331.50 0.45311
332.00 0.49260
332.50 0.53598
333.00 0.58196
333.50 0.61718
334.00 0.65214
334.50 0.68684
335.00 0.72127
335.50 0.75563
336.00 0.79152
336.50 0.82763
337.00 0.86347
337.50 0.89904
338.00 0.93191
338.50 0.95850
339.00 0.98314
339.50 1.00747
340.00 1.03153
340.50 1.06192
341.00 1.08911
341.50 1.10971
342.00 1.13075
342.50 1.15201
343.00 1.17312
343.50 1.18796
344.00 1.20135
344.50 1.21475
345.00 1.22800
345.50 1.24264
346.00 1.25518
346.50 1.26590
347.00 1.27658
347.50 1.28719
348.00 1.29644
348.50 1.30128
349.00 1.30613
349.50 1.31093
350.00 1.31569
350.50 1.32218
351.00 1.32871
351.50 1.33267
352.00 1.33575
352.50 1.33886
353.00 1.34199
353.50 1.34351
354.00 1.34495
354.50 1.34730
355.00 1.34977
355.50 1.35072
356.00 1.35172
356.50 1.35278
357.00 1.35394
357.50 1.35465
358.00 1.35532
358.50 1.35544
359.00 1.35551
359.50 1.35586
360.00 1.35651
