phi[deg] B[T]
0.00 1.98440
0.50 1.98437
1.00 1.98449
1.50 1.98476
2.00 1.98519
2.50 1.98582
3.00 1.98602
3.50 1.98709
4.00 1.98830
4.50 1.98965
5.00 1.99113
5.50 1.99276
6.00 1.99466
6.50 1.99671
7.00 1.99890
7.50 1.99955
8.00 2.00017
8.50 2.00126
9.00 2.00293
9.50 2.00472
10.00 2.00663
10.50 2.00596
11.00 2.00449
11.50 2.00366
12.00 2.00324
12.50 2.00292
13.00 2.00271
13.50 2.00237
14.00 2.00063
14.50 1.99800
15.00 1.99279
15.50 1.98825
16.00 1.98544
16.50 1.98269
17.00 1.98003
17.50 1.97632
18.00 1.96929
18.50 1.96232
19.00 1.95566
19.50 1.95123
20.00 1.94684
20.50 1.94071
21.00 1.93189
21.50 1.92311
22.00 1.91321
22.50 1.90193
23.00 1.89066
23.50 1.87942
24.00 1.86517
24.50 1.85025
25.00 1.83536
25.50 1.82035
26.00 1.80274
26.50 1.78557
27.00 1.76856
27.50 1.75157
28.00 1.73366
28.50 1.71457
29.00 1.69535
29.50 1.67514
30.00 1.65496
30.50 1.63479
31.00 1.61280
31.50 1.58982
32.00 1.56900
32.50 1.54818
33.00 1.52736
33.50 1.50532
34.00 1.48169
34.50 1.45806
35.00 1.43366
35.50 1.40842
36.00 1.38319
36.50 1.35796
37.00 1.33246
37.50 1.30635
38.00 1.28086
38.50 1.25538
39.00 1.22991
39.50 1.20427
40.00 1.17853
40.50 1.15383
41.00 1.12914
41.50 1.10444
42.00 1.07945
42.50 1.05546
43.00 1.03216
43.50 1.00897
44.00 0.98606
44.50 0.96316
45.00 0.94003
45.50 0.91787
46.00 0.89622
46.50 0.87455
47.00 0.85368
47.50 0.83346
48.00 0.81217
48.50 0.79005
49.00 0.77010
49.50 0.75046
50.00 0.73047
50.50 0.70928
51.00 0.69026
51.50 0.67119
52.00 0.65207
52.50 0.63278
53.00 0.61054
53.50 0.59004
54.00 0.57027
54.50 0.55044
55.00 0.53054
55.50 0.51035
56.00 0.48826
56.50 0.46824
57.00 0.44814
57.50 0.42795
58.00 0.40775
58.50 0.38831
59.00 0.36881
59.50 0.34729
60.00 0.32569
60.50 0.30404
61.00 0.28232
61.50 0.26103
62.00 0.24519
62.50 0.22952
63.00 0.21379
63.50 0.19802
64.00 0.18219
64.50 0.16559
65.00 0.15469
65.50 0.14399
66.00 0.13329
66.50 0.12253
67.00 0.11165
67.50 0.10077
68.00 0.09210
68.50 0.08610
69.00 0.08010
69.50 0.07409
70.00 0.06797
70.50 0.06183
71.00 0.05571
71.50 0.04994
72.00 0.04637
72.50 0.04304
73.00 0.03971
73.50 0.03639
74.00 0.03307
74.50 0.02975
75.00 0.02737
75.50 0.02553
76.00 0.02370
76.50 0.02186
77.00 0.02003
77.50 0.01813
78.00 0.01623
78.50 0.01500
79.00 0.01402
79.50 0.01304
80.00 0.01206
80.50 0.01108
81.00 0.01010
81.50 0.00914
82.00 0.00846
82.50 0.00789
83.00 0.00736
83.50 0.00683
84.00 0.00630
84.50 0.00583
85.00 0.00555
85.50 0.00527
86.00 0.00499
86.50 0.00470
87.00 0.00440
87.50 0.00430
88.00 0.00419
88.50 0.00407
89.00 0.00395
89.50 0.00383
90.00 0.00371
90.00 0.00371
90.50 0.00383
91.00 0.00395
91.50 0.00407
92.00 0.00419
92.50 0.00430
93.00 0.00440
93.50 0.00470
94.00 0.00499
94.50 0.00527
95.00 0.00555
95.50 0.00583
96.00 0.00630
96.50 0.00683
97.00 0.00736
97.50 0.00789
98.00 0.00846
98.50 0.00914
99.00 0.01010
99.50 0.01108
100.00 0.01206
100.50 0.01304
101.00 0.01402
101.50 0.01500
102.00 0.01623
102.50 0.01813
103.00 0.02003
103.50 0.02186
104.00 0.02370
104.50 0.02553
105.00 0.02737
105.50 0.02975
106.00 0.03307
106.50 0.03639
107.00 0.03971
107.50 0.04304
108.00 0.04637
108.50 0.04994
109.00 0.05571
109.50 0.06183
110.00 0.06797
110.50 0.07409
111.00 0.08010
111.50 0.08610
112.00 0.09210
112.50 0.10077
113.00 0.11165
113.50 0.12253
114.00 0.13329
114.50 0.14399
115.00 0.15469
115.50 0.16559
116.00 0.18219
116.50 0.19802
117.00 0.21379
117.50 0.22952
118.00 0.24519
118.50 0.26103
119.00 0.28232
119.50 0.30404
120.00 0.32569
120.50 0.34729
121.00 0.36881
121.50 0.38831
122.00 0.40775
122.50 0.42795
123.00 0.44814
123.50 0.46824
124.00 0.48826
124.50 0.51035
125.00 0.53054
125.50 0.55044
126.00 0.57027
126.50 0.59004
127.00 0.61054
127.50 0.63278
128.00 0.65207
128.50 0.67119
129.00 0.69026
129.50 0.70928
130.00 0.73047
130.50 0.75046
131.00 0.77010
131.50 0.79005
132.00 0.81217
132.50 0.83346
133.00 0.85368
133.50 0.87455
134.00 0.89622
134.50 0.91787
135.00 0.94003
135.50 0.96316
136.00 0.98606
136.50 1.00897
137.00 1.03216
137.50 1.05546
138.00 1.07945
138.50 1.10444
139.00 1.12914
139.50 1.15383
140.00 1.17853
140.50 1.20427
141.00 1.22991
141.50 1.25538
142.00 1.28086
142.50 1.30635
143.00 1.33246
143.50 1.35796
144.00 1.38319
144.50 1.40842
145.00 1.43366
145.50 1.45806
146.00 1.48169
146.50 1.50532
147.00 1.52736
147.50 1.54818
148.00 1.56900
148.50 1.58982
149.00 1.61280
149.50 1.63479
150.00 1.65496
150.50 1.67514
151.00 1.69535
151.50 1.71457
152.00 1.73366
152.50 1.75157
153.00 1.76856
153.50 1.78557
154.00 1.80274
154.50 1.82035
155.00 1.83536
155.50 1.85025
156.00 1.86517
156.50 1.87942
157.00 1.89066
157.50 1.90193
158.00 1.91321
158.50 1.92311
159.00 1.93189
159.50 1.94071
160.00 1.94684
160.50 1.95123
161.00 1.95566
161.50 1.96232
162.00 1.96929
162.50 1.97632
163.00 1.98003
163.50 1.98269
164.00 1.98544
164.50 1.98825
165.00 1.99279
165.50 1.99800
166.00 2.00063
166.50 2.00237
167.00 2.00271
167.50 2.00292
168.00 2.00324
168.50 2.00366
169.00 2.00449
169.50 2.00596
170.00 2.00663
170.50 2.00472
171.00 2.00293
171.50 2.00126
172.00 2.00017
172.50 1.99955
173.00 1.99890
173.50 1.99671
174.00 1.99466
174.50 1.99276
175.00 1.99113
175.50 1.98965
176.00 1.98830
176.50 1.98709
177.00 1.98602
177.50 1.98582
178.00 1.98519
178.50 1.98476
179.00 1.98449
179.50 1.98437
180.00 1.98440
180.00 1.98440
180.50 1.98437
181.00 1.98449
181.50 1.98476
182.00 1.98519
182.50 1.98582
183.00 1.98602
183.50 1.98709
184.00 1.98830
184.50 1.98965
185.00 1.99113
185.50 1.99276
186.00 1.99466
186.50 1.99671
187.00 1.99890
187.50 1.99955
188.00 2.00017
188.50 2.00126
189.00 2.00293
189.50 2.00472
190.00 2.00663
190.50 2.00596
191.00 2.00449
191.50 2.00366
192.00 2.00324
192.50 2.00292
193.00 2.00271
193.50 2.00237
194.00 2.00063
194.50 1.99800
195.00 1.99279
195.50 1.98825
196.00 1.98544
196.50 1.98269
197.00 1.98003
197.50 1.97632
198.00 1.96929
198.50 1.96232
199.00 1.95566
199.50 1.95123
200.00 1.94684
200.50 1.94071
201.00 1.93189
201.50 1.92311
202.00 1.91321
202.50 1.90193
203.00 1.89066
203.50 1.87942
204.00 1.86517
204.50 1.85025
205.00 1.83536
205.50 1.82035
206.00 1.80274
206.50 1.78557
207.00 1.76856
207.50 1.75157
208.00 1.73366
208.50 1.71457
209.00 1.69535
209.50 1.67514
210.00 1.65496
210.50 1.63479
211.00 1.61280
211.50 1.58982
212.00 1.56900
212.50 1.54818
213.00 1.52736
213.50 1.50532
214.00 1.48169
214.50 1.45806
215.00 1.43366
215.50 1.40842
216.00 1.38319
216.50 1.35796
217.00 1.33246
217.50 1.30635
218.00 1.28086
218.50 1.25538
219.00 1.22991
219.50 1.20427
220.00 1.17853
220.50 1.15383
221.00 1.12914
221.50 1.10444
222.00 1.07945
222.50 1.05546
223.00 1.03216
223.50 1.00897
224.00 0.98606
224.50 0.96316
225.00 0.94003
225.50 0.91787
226.00 0.89622
226.50 0.87455
227.00 0.85368
227.50 0.83346
228.00 0.81217
228.50 0.79005
229.00 0.77010
229.50 0.75046
230.00 0.73047
230.50 0.70928
231.00 0.69026
231.50 0.67119
232.00 0.65207
232.50 0.63278
233.00 0.61054
233.50 0.59004
234.00 0.57027
234.50 0.55044
235.00 0.53054
235.50 0.51035
236.00 0.48826
236.50 0.46824
237.00 0.44814
237.50 0.42795
238.00 0.40775
238.50 0.38831
239.00 0.36881
239.50 0.34729
240.00 0.32569
240.50 0.30404
241.00 0.28232
241.50 0.26103
242.00 0.24519
242.50 0.22952
243.00 0.21379
243.50 0.19802
244.00 0.18219
244.50 0.16559
245.00 0.15469
245.50 0.14399
246.00 0.13329
246.50 0.12253
247.00 0.11165
247.50 0.10077
248.00 0.09210
248.50 0.08610
249.00 0.08010
249.50 0.07409
250.00 0.06797
250.50 0.06183
251.00 0.05571
251.50 0.04994
252.00 0.04637
252.50 0.04304
253.00 0.03971
253.50 0.03639
254.00 0.03307
254.50 0.02975
255.00 0.02737
255.50 0.02553
256.00 0.02370
256.50 0.02186
257.00 0.02003
257.50 0.01813
258.00 0.01623
258.50 0.01500
259.00 0.01402
259.50 0.01304
260.00 0.01206
260.50 0.01108
261.00 0.01010
261.50 0.00914
262.00 0.00846
262.50 0.00789
263.00 0.00736
263.50 0.00683
264.00 0.00630
264.50 0.00583
265.00 0.00555
265.50 0.00527
266.00 0.00499
266.50 0.00470
267.00 0.00440
267.50 0.00430
268.00 0.00419
268.50 0.00407
269.00 0.00395
269.50 0.00383
270.00 0.00371
270.00 0.00371
270.50 0.00383
271.00 0.00395
271.50 0.00407
272.00 0.00419
272.50 0.00430
273.00 0.00440
273.50 0.00470
274.00 0.00499
274.50 0.00527
275.00 0.00555
275.50 0.00583
276.00 0.00630
276.50 0.00683
277.00 0.00736
277.50 0.00789
278.00 0.00846
278.50 0.00914
279.00 0.01010
279.50 0.01108
280.00 0.01206
280.50 0.01304
281.00 0.01402
281.50 0.01500
282.00 0.01623
282.50 0.01813
283.00 0.02003
283.50 0.02186
284.00 0.02370
284.50 0.02553
285.00 0.02737
285.50 0.02975
286.00 0.03307
286.50 0.03639
287.00 0.03971
287.50 0.04304
288.00 0.04637
288.50 0.04994
289.00 0.05571
289.50 0.06183
290.00 0.06797
290.50 0.07409
291.00 0.08010
291.50 0.08610
292.00 0.09210
292.50 0.10077
293.00 0.11165
293.50 0.12253
294.00 0.13329
294.50 0.14399
295.00 0.15469
295.50 0.16559
296.00 0.18219
296.50 0.19802
297.00 0.21379
297.50 0.22952
298.00 0.24519
298.50 0.26103
299.00 0.28232
299.50 0.30404
300.00 0.32569
300.50 0.34729
301.00 0.36881
301.50 0.38831
302.00 0.40775
302.50 0.42795
303.00 0.44814
303.50 0.46824
304.00 0.48826
304.50 0.51035
305.00 0.53054
305.50 0.55044
306.00 0.57027
306.50 0.59004
307.00 0.61054
307.50 0.63278
308.00 0.65207
308.50 0.67119
309.00 0.69026
309.50 0.70928
310.00 0.73047
310.50 0.75046
311.00 0.77010
311.50 0.79005
312.00 0.81217
312.50 0.83346
313.00 0.85368
313.50 0.87455
314.00 0.89622
314.50 0.91787
315.00 0.94003
315.50 0.96316
316.00 0.98606
316.50 1.00897
317.00 1.03216
317.50 1.05546
318.00 1.07945
318.50 1.10444
319.00 1.12914
319.50 1.15383
320.00 1.17853
320.50 1.20427
321.00 1.22991
321.50 1.25538
322.00 1.28086
322.50 1.30635
323.00 1.33246
323.50 1.35796
324.00 1.38319
324.50 1.40842
325.00 1.43366
325.50 1.45806
326.00 1.48169
326.50 1.50532
327.00 1.52736
327.50 1.54818
328.00 1.56900
328.50 1.58982
329.00 1.61280
329.50 1.63479
330.00 1.65496
330.50 1.67514
331.00 1.69535
331.50 1.71457
332.00 1.73366
332.50 1.75157
333.00 1.76856
333.50 1.78557
334.00 1.80274
334.50 1.82035
335.00 1.83536
335.50 1.85025
336.00 1.86517
336.50 1.87942
337.00 1.89066
337.50 1.90193
338.00 1.91321
338.50 1.92311
339.00 1.93189
339.50 1.94071
340.00 1.94684
340.50 1.95123
341.00 1.95566
341.50 1.96232
342.00 1.96929
342.50 1.97632
343.00 1.98003
343.50 1.98269
344.00 1.98544
344.50 1.98825
345.00 1.99279
345.50 1.99800
346.00 2.00063
346.50 2.00237
347.00 2.00271
347.50 2.00292
348.00 2.00324
348.50 2.00366
349.00 2.00449
349.50 2.00596
350.00 2.00663
350.50 2.00472
351.00 2.00293
351.50 2.00126
352.00 2.00017
352.50 1.99955
353.00 1.99890
353.50 1.99671
354.00 1.99466
354.50 1.99276
355.00 1.99113
355.50 1.98965
356.00 1.98830
356.50 1.98709
357.00 1.98602
357.50 1.98582
358.00 1.98519
358.50 1.98476
359.00 1.98449
359.50 1.98437
360.00 1.98440
