phi[deg] B[T]
0.00 1.96767
0.50 1.96765
1.00 1.96777
1.50 1.96805
2.00 1.96848
2.50 1.96912
3.00 1.96937
3.50 1.97047
4.00 1.97170
4.50 1.97308
5.00 1.97459
5.50 1.97624
6.00 1.97819
6.50 1.98028
7.00 1.98251
7.50 1.98328
8.00 1.98403
8.50 1.98527
9.00 1.98707
9.50 1.98900
10.00 1.99105
10.50 1.99063
11.00 1.98945
11.50 1.98894
12.00 1.98887
12.50 1.98890
13.00 1.98904
13.50 1.98904
14.00 1.98767
14.50 1.98543
15.00 1.98072
15.50 1.97670
16.00 1.97443
16.50 1.97224
17.00 1.97012
17.50 1.96696
18.00 1.96048
18.50 1.95405
19.00 1.94795
19.50 1.94416
20.00 1.94042
20.50 1.93498
21.00 1.92690
21.50 1.91887
22.00 1.90964
22.50 1.89890
23.00 1.88818
23.50 1.87748
24.00 1.86387
24.50 1.84960
25.00 1.83536
25.50 1.82099
26.00 1.80375
26.50 1.78710
27.00 1.77064
27.50 1.75419
28.00 1.73668
28.50 1.71781
29.00 1.69879
29.50 1.67876
30.00 1.65874
30.50 1.63873
31.00 1.61666
31.50 1.59347
32.00 1.57251
32.50 1.55154
33.00 1.53057
33.50 1.50824
34.00 1.48415
34.50 1.46004
35.00 1.43494
35.50 1.40876
36.00 1.38258
36.50 1.35639
37.00 1.32998
37.50 1.30307
38.00 1.27651
38.50 1.24994
39.00 1.22338
39.50 1.19670
40.00 1.17003
40.50 1.14429
41.00 1.11854
41.50 1.09280
42.00 1.06699
42.50 1.04212
43.00 1.01788
43.50 0.99381
44.00 0.97017
44.50 0.94653
45.00 0.92268
45.50 0.89997
46.00 0.87774
46.50 0.85548
47.00 0.83408
47.50 0.81339
48.00 0.79172
48.50 0.76930
49.00 0.74908
49.50 0.72919
50.00 0.70897
50.50 0.68768
51.00 0.66862
51.50 0.64951
52.00 0.63036
52.50 0.61105
53.00 0.58902
53.50 0.56877
54.00 0.54928
54.50 0.52973
55.00 0.51012
55.50 0.49025
56.00 0.46869
56.50 0.44922
57.00 0.42968
57.50 0.41006
58.00 0.39042
58.50 0.37157
59.00 0.35265
59.50 0.33200
60.00 0.31129
60.50 0.29051
61.00 0.26968
61.50 0.24926
62.00 0.23410
62.50 0.21910
63.00 0.20405
63.50 0.18896
64.00 0.17382
64.50 0.15799
65.00 0.14758
65.50 0.13737
66.00 0.12716
66.50 0.11688
67.00 0.10650
67.50 0.09611
68.00 0.08783
68.50 0.08211
69.00 0.07638
69.50 0.07065
70.00 0.06481
70.50 0.05896
71.00 0.05312
71.50 0.04762
72.00 0.04422
72.50 0.04105
73.00 0.03787
73.50 0.03470
74.00 0.03153
74.50 0.02837
75.00 0.02610
75.50 0.02435
76.00 0.02260
76.50 0.02085
77.00 0.01910
77.50 0.01729
78.00 0.01547
78.50 0.01430
79.00 0.01336
79.50 0.01243
80.00 0.01149
80.50 0.01056
81.00 0.00962
81.50 0.00871
82.00 0.00806
82.50 0.00752
83.00 0.00701
83.50 0.00651
84.00 0.00600
84.50 0.00555
85.00 0.00528
85.50 0.00501
86.00 0.00475
86.50 0.00447
87.00 0.00419
87.50 0.00409
88.00 0.00398
88.50 0.00387
89.00 0.00376
89.50 0.00364
90.00 0.00353
90.00 0.00353
90.50 0.00364
91.00 0.00376
91.50 0.00387
92.00 0.00398
92.50 0.00409
93.00 0.00419
93.50 0.00447
94.00 0.00475
94.50 0.00501
95.00 0.00528
95.50 0.00555
96.00 0.00600
96.50 0.00651
97.00 0.00701
97.50 0.00752
98.00 0.00806
98.50 0.00871
99.00 0.00962
99.50 0.01056
100.00 0.01149
100.50 0.01243
101.00 0.01336
101.50 0.01430
102.00 0.01547
102.50 0.01729
103.00 0.01910
103.50 0.02085
104.00 0.02260
104.50 0.02435
105.00 0.02610
105.50 0.02837
106.00 0.03153
106.50 0.03470
107.00 0.03787
107.50 0.04105
108.00 0.04422
108.50 0.04762
109.00 0.05312
109.50 0.05896
110.00 0.06481
110.50 0.07065
111.00 0.07638
111.50 0.08211
112.00 0.08783
112.50 0.09611
113.00 0.10650
113.50 0.11688
114.00 0.12716
114.50 0.13737
115.00 0.14758
115.50 0.15799
116.00 0.17382
116.50 0.18896
117.00 0.20405
117.50 0.21910
118.00 0.23410
118.50 0.24926
119.00 0.26968
119.50 0.29051
120.00 0.31129
120.50 0.33200
121.00 0.35265
121.50 0.37157
122.00 0.39042
122.50 0.41006
123.00 0.42968
123.50 0.44922
124.00 0.46869
124.50 0.49025
125.00 0.51012
125.50 0.52973
126.00 0.54928
126.50 0.56877
127.00 0.58902
127.50 0.61105
128.00 0.63036
128.50 0.64951
129.00 0.66862
129.50 0.68768
130.00 0.70897
130.50 0.72919
131.00 0.74908
131.50 0.76930
132.00 0.79172
132.50 0.81339
133.00 0.83408
133.50 0.85548
134.00 0.87774
134.50 0.89997
135.00 0.92268
135.50 0.94653
136.00 0.97017
136.50 0.99381
137.00 1.01788
137.50 1.04212
138.00 1.06699
138.50 1.09280
139.00 1.11854
139.50 1.14429
140.00 1.17003
140.50 1.19670
141.00 1.22338
141.50 1.24994
142.00 1.27651
142.50 1.30307
143.00 1.32998
143.50 1.35639
144.00 1.38258
144.50 1.40876
145.00 1.43494
145.50 1.46004
146.00 1.48415
146.50 1.50824
147.00 1.53057
147.50 1.55154
148.00 1.57251
148.50 1.59347
149.00 1.61666
149.50 1.63873
150.00 1.65874
150.50 1.67876
151.00 1.69879
151.50 1.71781
152.00 1.73668
152.50 1.75419
153.00 1.77064
153.50 1.78710
154.00 1.80375
154.50 1.82099
155.00 1.83536
155.50 1.84960
156.00 1.86387
156.50 1.87748
157.00 1.88818
157.50 1.89890
158.00 1.90964
158.50 1.91887
159.00 1.92690
159.50 1.93498
160.00 1.94042
160.50 1.94416
161.00 1.94795
161.50 1.95405
162.00 1.96048
162.50 1.96696
163.00 1.97012
163.50 1.97224
164.00 1.97443
164.50 1.97670
165.00 1.98072
165.50 1.98543
166.00 1.98767
166.50 1.98904
167.00 1.98904
167.50 1.98890
168.00 1.98887
168.50 1.98894
169.00 1.98945
169.50 1.99063
170.00 1.99105
170.50 1.98900
171.00 1.98707
171.50 1.98527
172.00 1.98403
172.50 1.98328
173.00 1.98251
173.50 1.98028
174.00 1.97819
174.50 1.97624
175.00 1.97459
175.50 1.97308
176.00 1.97170
176.50 1.97047
177.00 1.96937
177.50 1.96912
178.00 1.96848
178.50 1.96805
179.00 1.96777
179.50 1.96765
180.00 1.96767
180.00 1.96767
180.50 1.96765
181.00 1.96777
181.50 1.96805
182.00 1.96848
182.50 1.96912
183.00 1.96937
183.50 1.97047
184.00 1.97170
184.50 1.97308
185.00 1.97459
185.50 1.97624
186.00 1.97819
186.50 1.98028
187.00 1.98251
187.50 1.98328
188.00 1.98403
188.50 1.98527
189.00 1.98707
189.50 1.98900
190.00 1.99105
190.50 1.99063
191.00 1.98945
191.50 1.98894
192.00 1.98887
192.50 1.98890
193.00 1.98904
193.50 1.98904
194.00 1.98767
194.50 1.98543
195.00 1.98072
195.50 1.97670
196.00 1.97443
196.50 1.97224
197.00 1.97012
197.50 1.96696
198.00 1.96048
198.50 1.95405
199.00 1.94795
199.50 1.94416
200.00 1.94042
200.50 1.93498
201.00 1.92690
201.50 1.91887
202.00 1.90964
202.50 1.89890
203.00 1.88818
203.50 1.87748
204.00 1.86387
204.50 1.84960
205.00 1.83536
205.50 1.82099
206.00 1.80375
206.50 1.78710
207.00 1.77064
207.50 1.75419
208.00 1.73668
208.50 1.71781
209.00 1.69879
209.50 1.67876
210.00 1.65874
210.50 1.63873
211.00 1.61666
211.50 1.59347
212.00 1.57251
212.50 1.55154
213.00 1.53057
213.50 1.50824
214.00 1.48415
214.50 1.46004
215.00 1.43494
215.50 1.40876
216.00 1.38258
216.50 1.35639
217.00 1.32998
217.50 1.30307
218.00 1.27651
218.50 1.24994
219.00 1.22338
219.50 1.19670
220.00 1.17003
220.50 1.14429
221.00 1.11854
221.50 1.09280
222.00 1.06699
222.50 1.04212
223.00 1.01788
223.50 0.99381
224.00 0.97017
224.50 0.94653
225.00 0.92268
225.50 0.89997
226.00 0.87774
226.50 0.85548
227.00 0.83408
227.50 0.81339
228.00 0.79172
228.50 0.76930
229.00 0.74908
229.50 0.72919
230.00 0.70897
230.50 0.68768
231.00 0.66862
231.50 0.64951
232.00 0.63036
232.50 0.61105
233.00 0.58902
233.50 0.56877
234.00 0.54928
234.50 0.52973
235.00 0.51012
235.50 0.49025
236.00 0.46869
236.50 0.44922
237.00 0.42968
237.50 0.41006
238.00 0.39042
238.50 0.37157
239.00 0.35265
239.50 0.33200
240.00 0.31129
240.50 0.29051
241.00 0.26968
241.50 0.24926
242.00 0.23410
242.50 0.21910
243.00 0.20405
243.50 0.18896
244.00 0.17382
244.50 0.15799
245.00 0.14758
245.50 0.13737
246.00 0.12716
246.50 0.11688
247.00 0.10650
247.50 0.09611
248.00 0.08783
248.50 0.08211
249.00 0.07638
249.50 0.07065
250.00 0.06481
250.50 0.05896
251.00 0.05312
251.50 0.04762
252.00 0.04422
252.50 0.04105
253.00 0.03787
253.50 0.03470
254.00 0.03153
254.50 0.02837
255.00 0.02610
255.50 0.02435
256.00 0.02260
256.50 0.02085
257.00 0.01910
257.50 0.01729
258.00 0.01547
258.50 0.01430
259.00 0.01336
259.50 0.01243
260.00 0.01149
260.50 0.01056
261.00 0.00962
261.50 0.00871
262.00 0.00806
262.50 0.00752
263.00 0.00701
263.50 0.00651
264.00 0.00600
264.50 0.00555
265.00 0.00528
265.50 0.00501
266.00 0.00475
266.50 0.00447
267.00 0.00419
267.50 0.00409
268.00 0.00398
268.50 0.00387
269.00 0.00376
269.50 0.00364
270.00 0.00353
270.00 0.00353
270.50 0.00364
271.00 0.00376
271.50 0.00387
272.00 0.00398
272.50 0.00409
273.00 0.00419
273.50 0.00447
274.00 0.00475
274.50 0.00501
275.00 0.00528
275.50 0.00555
276.00 0.00600
276.50 0.00651
277.00 0.00701
277.50 0.00752
278.00 0.00806
278.50 0.00871
279.00 0.00962
279.50 0.01056
280.00 0.01149
280.50 0.01243
281.00 0.01336
281.50 0.01430
282.00 0.01547
282.50 0.01729
283.00 0.01910
283.50 0.02085
284.00 0.02260
284.50 0.02435
285.00 0.02610
285.50 0.02837
286.00 0.03153
286.50 0.03470
287.00 0.03787
287.50 0.04105
288.00 0.04422
288.50 0.04762
289.00 0.05312
289.50 0.05896
290.00 0.06481
290.50 0.07065
291.00 0.07638
291.50 0.08211
292.00 0.08783
292.50 0.09611
293.00 0.10650
293.50 0.11688
294.00 0.12716
294.50 0.13737
295.00 0.14758
295.50 0.15799
296.00 0.17382
296.50 0.18896
297.00 0.20405
297.50 0.21910
298.00 0.23410
298.50 0.24926
299.00 0.26968
299.50 0.29051
300.00 0.31129
300.50 0.33200
301.00 0.35265
301.50 0.37157
302.00 0.39042
302.50 0.41006
303.00 0.42968
303.50 0.44922
304.00 0.46869
304.50 0.49025
305.00 0.51012
305.50 0.52973
306.00 0.54928
306.50 0.56877
307.00 0.58902
307.50 0.61105
308.00 0.63036
308.50 0.64951
309.00 0.66862
309.50 0.68768
310.00 0.70897
310.50 0.72919
311.00 0.74908
311.50 0.76930
312.00 0.79172
312.50 0.81339
313.00 0.83408
313.50 0.85548
314.00 0.87774
314.50 0.89997
315.00 0.92268
315.50 0.94653
316.00 0.97017
316.50 0.99381
317.00 1.01788
317.50 1.04212
318.00 1.06699
318.50 1.09280
319.00 1.11854
319.50 1.14429
320.00 1.17003
320.50 1.19670
321.00 1.22338
321.50 1.24994
322.00 1.27651
322.50 1.30307
323.00 1.32998
323.50 1.35639
324.00 1.38258
324.50 1.40876
325.00 1.43494
325.50 1.46004
326.00 1.48415
326.50 1.50824
327.00 1.53057
327.50 1.55154
328.00 1.57251
328.50 1.59347
329.00 1.61666
329.50 1.63873
330.00 1.65874
330.50 1.67876
331.00 1.69879
331.50 1.71781
332.00 1.73668
332.50 1.75419
333.00 1.77064
333.50 1.78710
334.00 1.80375
334.50 1.82099
335.00 1.83536
335.50 1.84960
336.00 1.86387
336.50 1.87748
337.00 1.88818
337.50 1.89890
338.00 1.90964
338.50 1.91887
339.00 1.92690
339.50 1.93498
340.00 1.94042
340.50 1.94416
341.00 1.94795
341.50 1.95405
342.00 1.96048
342.50 1.96696
343.00 1.97012
343.50 1.97224
344.00 1.97443
344.50 1.97670
345.00 1.98072
345.50 1.98543
346.00 1.98767
346.50 1.98904
347.00 1.98904
347.50 1.98890
348.00 1.98887
348.50 1.98894
349.00 1.98945
349.50 1.99063
350.00 1.99105
350.50 1.98900
351.00 1.98707
351.50 1.98527
352.00 1.98403
352.50 1.98328
353.00 1.98251
353.50 1.98028
354.00 1.97819
354.50 1.97624
355.00 1.97459
355.50 1.97308
356.00 1.97170
356.50 1.97047
357.00 1.96937
357.50 1.96912
358.00 1.96848
358.50 1.96805
359.00 1.96777
359.50 1.96765
360.00 1.96767
