phi[deg] B[T]
0.00 1.96876
0.50 1.96874
1.00 1.96887
1.50 1.96915
2.00 1.96959
2.50 1.97024
3.00 1.97052
3.50 1.97164
4.00 1.97290
4.50 1.97431
5.00 1.97585
5.50 1.97753
6.00 1.97952
6.50 1.98165
7.00 1.98392
7.50 1.98478
8.00 1.98562
8.50 1.98694
9.00 1.98885
9.50 1.99089
10.00 1.99304
10.50 1.99277
11.00 1.99176
11.50 1.99145
12.00 1.99159
12.50 1.99184
13.00 1.99219
13.50 1.99242
14.00 1.99126
14.50 1.98924
15.00 1.98477
15.50 1.98100
16.00 1.97902
16.50 1.97711
17.00 1.97528
17.50 1.97239
18.00 1.96612
18.50 1.95991
19.00 1.95402
19.50 1.95048
20.00 1.94698
20.50 1.94171
21.00 1.93368
21.50 1.92568
22.00 1.91653
22.50 1.90592
23.00 1.89533
23.50 1.88476
24.00 1.87108
24.50 1.85668
25.00 1.84232
25.50 1.82784
26.00 1.81068
26.50 1.79390
27.00 1.77726
27.50 1.76064
28.00 1.74308
28.50 1.72432
29.00 1.70539
29.50 1.68536
30.00 1.66535
30.50 1.64535
31.00 1.62351
31.50 1.60067
32.00 1.57992
32.50 1.55918
33.00 1.53843
33.50 1.51646
34.00 1.49288
34.50 1.46929
35.00 1.44488
35.50 1.41958
36.00 1.39428
36.50 1.36899
37.00 1.34343
37.50 1.31726
38.00 1.29165
38.50 1.26606
39.00 1.24046
39.50 1.21470
40.00 1.18883
40.50 1.16399
41.00 1.13914
41.50 1.11429
42.00 1.08914
42.50 1.06499
43.00 1.04152
43.50 1.01815
44.00 0.99507
44.50 0.97198
45.00 0.94868
45.50 0.92633
46.00 0.90450
46.50 0.88265
47.00 0.86159
47.50 0.84119
48.00 0.81970
48.50 0.79740
49.00 0.77726
49.50 0.75743
50.00 0.73725
50.50 0.71587
51.00 0.69667
51.50 0.67741
52.00 0.65810
52.50 0.63862
53.00 0.61618
53.50 0.59548
54.00 0.57552
54.50 0.55549
55.00 0.53540
55.50 0.51502
56.00 0.49272
56.50 0.47251
57.00 0.45221
57.50 0.43183
58.00 0.41143
58.50 0.39182
59.00 0.37213
59.50 0.35041
60.00 0.32862
60.50 0.30677
61.00 0.28485
61.50 0.26337
62.00 0.24738
62.50 0.23157
63.00 0.21570
63.50 0.19978
64.00 0.18382
64.50 0.16706
65.00 0.15607
65.50 0.14527
66.00 0.13448
66.50 0.12362
67.00 0.11265
67.50 0.10166
68.00 0.09292
68.50 0.08687
69.00 0.08081
69.50 0.07474
70.00 0.06857
70.50 0.06238
71.00 0.05620
71.50 0.05038
72.00 0.04678
72.50 0.04342
73.00 0.04007
73.50 0.03671
74.00 0.03336
74.50 0.03002
75.00 0.02762
75.50 0.02576
76.00 0.02391
76.50 0.02206
77.00 0.02021
77.50 0.01830
78.00 0.01638
78.50 0.01514
79.00 0.01415
79.50 0.01316
80.00 0.01217
80.50 0.01118
81.00 0.01019
81.50 0.00923
82.00 0.00854
82.50 0.00797
83.00 0.00743
83.50 0.00690
84.00 0.00636
84.50 0.00588
85.00 0.00560
85.50 0.00532
86.00 0.00503
86.50 0.00474
87.00 0.00444
87.50 0.00434
88.00 0.00423
88.50 0.00411
89.00 0.00399
89.50 0.00387
90.00 0.00375
90.00 0.00375
90.50 0.00387
91.00 0.00399
91.50 0.00411
92.00 0.00423
92.50 0.00434
93.00 0.00444
93.50 0.00474
94.00 0.00503
94.50 0.00532
95.00 0.00560
95.50 0.00588
96.00 0.00636
96.50 0.00690
97.00 0.00743
97.50 0.00797
98.00 0.00854
98.50 0.00923
99.00 0.01019
99.50 0.01118
100.00 0.01217
100.50 0.01316
101.00 0.01415
101.50 0.01514
102.00 0.01638
102.50 0.01830
103.00 0.02021
103.50 0.02206
104.00 0.02391
104.50 0.02576
105.00 0.02762
105.50 0.03002
106.00 0.03336
106.50 0.03671
107.00 0.04007
107.50 0.04342
108.00 0.04678
108.50 0.05038
109.00 0.05620
109.50 0.06238
110.00 0.06857
110.50 0.07474
111.00 0.08081
111.50 0.08687
112.00 0.09292
112.50 0.10166
113.00 0.11265
113.50 0.12362
114.00 0.13448
114.50 0.14527
115.00 0.15607
115.50 0.16706
116.00 0.18382
116.50 0.19978
117.00 0.21570
117.50 0.23157
118.00 0.24738
118.50 0.26337
119.00 0.28485
119.50 0.30677
120.00 0.32862
120.50 0.35041
121.00 0.37213
121.50 0.39182
122.00 0.41143
122.50 0.43183
123.00 0.45221
123.50 0.47251
124.00 0.49272
124.50 0.51502
125.00 0.53540
125.50 0.55549
126.00 0.57552
126.50 0.59548
127.00 0.61618
127.50 0.63862
128.00 0.65810
128.50 0.67741
129.00 0.69667
129.50 0.71587
130.00 0.73725
130.50 0.75743
131.00 0.77726
131.50 0.79740
132.00 0.81970
132.50 0.84119
133.00 0.86159
133.50 0.88265
134.00 0.90450
134.50 0.92633
135.00 0.94868
135.50 0.97198
136.00 0.99507
136.50 1.01815
137.00 1.04152
137.50 1.06499
138.00 1.08914
138.50 1.11429
139.00 1.13914
139.50 1.16399
140.00 1.18883
140.50 1.21470
141.00 1.24046
141.50 1.26606
142.00 1.29165
142.50 1.31726
143.00 1.34343
143.50 1.36899
144.00 1.39428
144.50 1.41958
145.00 1.44488
145.50 1.46929
146.00 1.49288
146.50 1.51646
147.00 1.53843
147.50 1.55918
148.00 1.57992
148.50 1.60067
149.00 1.62351
149.50 1.64535
150.00 1.66535
150.50 1.68536
151.00 1.70539
151.50 1.72432
152.00 1.74308
152.50 1.76064
153.00 1.77726
153.50 1.79390
154.00 1.81068
154.50 1.82784
155.00 1.84232
155.50 1.85668
156.00 1.87108
156.50 1.88476
157.00 1.89533
157.50 1.90592
158.00 1.91653
158.50 1.92568
159.00 1.93368
159.50 1.94171
160.00 1.94698
160.50 1.95048
161.00 1.95402
161.50 1.95991
162.00 1.96612
162.50 1.97239
163.00 1.97528
163.50 1.97711
164.00 1.97902
164.50 1.98100
165.00 1.98477
165.50 1.98924
166.00 1.99126
166.50 1.99242
167.00 1.99219
167.50 1.99184
168.00 1.99159
168.50 1.99145
169.00 1.99176
169.50 1.99277
170.00 1.99304
170.50 1.99089
171.00 1.98885
171.50 1.98694
172.00 1.98562
172.50 1.98478
173.00 1.98392
173.50 1.98165
174.00 1.97952
174.50 1.97753
175.00 1.97585
175.50 1.97431
176.00 1.97290
176.50 1.97164
177.00 1.97052
177.50 1.97024
178.00 1.96959
178.50 1.96915
179.00 1.96887
179.50 1.96874
180.00 1.96876
180.00 1.96876
180.50 1.96874
181.00 1.96887
181.50 1.96915
182.00 1.96959
182.50 1.97024
183.00 1.97052
183.50 1.97164
184.00 1.97290
184.50 1.97431
185.00 1.97585
185.50 1.97753
186.00 1.97952
186.50 1.98165
187.00 1.98392
187.50 1.98478
188.00 1.98562
188.50 1.98694
189.00 1.98885
189.50 1.99089
190.00 1.99304
190.50 1.99277
191.00 1.99176
191.50 1.99145
192.00 1.99159
192.50 1.99184
193.00 1.99219
193.50 1.99242
194.00 1.99126
194.50 1.98924
195.00 1.98477
195.50 1.98100
196.00 1.97902
196.50 1.97711
197.00 1.97528
197.50 1.97239
198.00 1.96612
198.50 1.95991
199.00 1.95402
199.50 1.95048
200.00 1.94698
200.50 1.94171
201.00 1.93368
201.50 1.92568
202.00 1.91653
202.50 1.90592
203.00 1.89533
203.50 1.88476
204.00 1.87108
204.50 1.85668
205.00 1.84232
205.50 1.82784
206.00 1.81068
206.50 1.79390
207.00 1.77726
207.50 1.76064
208.00 1.74308
208.50 1.72432
209.00 1.70539
209.50 1.68536
210.00 1.66535
210.50 1.64535
211.00 1.62351
211.50 1.60067
212.00 1.57992
212.50 1.55918
213.00 1.53843
213.50 1.51646
214.00 1.49288
214.50 1.46929
215.00 1.44488
215.50 1.41958
216.00 1.39428
216.50 1.36899
217.00 1.34343
217.50 1.31726
218.00 1.29165
218.50 1.26606
219.00 1.24046
219.50 1.21470
220.00 1.18883
220.50 1.16399
221.00 1.13914
221.50 1.11429
222.00 1.08914
222.50 1.06499
223.00 1.04152
223.50 1.01815
224.00 0.99507
224.50 0.97198
225.00 0.94868
225.50 0.92633
226.00 0.90450
226.50 0.88265
227.00 0.86159
227.50 0.84119
228.00 0.81970
228.50 0.79740
229.00 0.77726
229.50 0.75743
230.00 0.73725
230.50 0.71587
231.00 0.69667
231.50 0.67741
232.00 0.65810
232.50 0.63862
233.00 0.61618
233.50 0.59548
234.00 0.57552
234.50 0.55549
235.00 0.53540
235.50 0.51502
236.00 0.49272
236.50 0.47251
237.00 0.45221
237.50 0.43183
238.00 0.41143
238.50 0.39182
239.00 0.37213
239.50 0.35041
240.00 0.32862
240.50 0.30677
241.00 0.28485
241.50 0.26337
242.00 0.24738
242.50 0.23157
243.00 0.21570
243.50 0.19978
244.00 0.18382
244.50 0.16706
245.00 0.15607
245.50 0.14527
246.00 0.13448
246.50 0.12362
247.00 0.11265
247.50 0.10166
248.00 0.09292
248.50 0.08687
249.00 0.08081
249.50 0.07474
250.00 0.06857
250.50 0.06238
251.00 0.05620
251.50 0.05038
252.00 0.04678
252.50 0.04342
253.00 0.04007
253.50 0.03671
254.00 0.03336
254.50 0.03002
255.00 0.02762
255.50 0.02576
256.00 0.02391
256.50 0.02206
257.00 0.02021
257.50 0.01830
258.00 0.01638
258.50 0.01514
259.00 0.01415
259.50 0.01316
260.00 0.01217
260.50 0.01118
261.00 0.01019
261.50 0.00923
262.00 0.00854
262.50 0.00797
263.00 0.00743
263.50 0.00690
264.00 0.00636
264.50 0.00588
265.00 0.00560
265.50 0.00532
266.00 0.00503
266.50 0.00474
267.00 0.00444
267.50 0.00434
268.00 0.00423
268.50 0.00411
269.00 0.00399
269.50 0.00387
270.00 0.00375
270.00 0.00375
270.50 0.00387
271.00 0.00399
271.50 0.00411
272.00 0.00423
272.50 0.00434
273.00 0.00444
273.50 0.00474
274.00 0.00503
274.50 0.00532
275.00 0.00560
275.50 0.00588
276.00 0.00636
276.50 0.00690
277.00 0.00743
277.50 0.00797
278.00 0.00854
278.50 0.00923
279.00 0.01019
279.50 0.01118
280.00 0.01217
280.50 0.01316
281.00 0.01415
281.50 0.01514
282.00 0.01638
282.50 0.01830
283.00 0.02021
283.50 0.02206
284.00 0.02391
284.50 0.02576
285.00 0.02762
285.50 0.03002
286.00 0.03336
286.50 0.03671
287.00 0.04007
287.50 0.04342
288.00 0.04678
288.50 0.05038
289.00 0.05620
289.50 0.06238
290.00 0.06857
290.50 0.07474
291.00 0.08081
291.50 0.08687
292.00 0.09292
292.50 0.10166
293.00 0.11265
293.50 0.12362
294.00 0.13448
294.50 0.14527
295.00 0.15607
295.50 0.16706
296.00 0.18382
296.50 0.19978
297.00 0.21570
297.50 0.23157
298.00 0.24738
298.50 0.26337
299.00 0.28485
299.50 0.30677
300.00 0.32862
300.50 0.35041
301.00 0.37213
301.50 0.39182
302.00 0.41143
302.50 0.43183
303.00 0.45221
303.50 0.47251
304.00 0.49272
304.50 0.51502
305.00 0.53540
305.50 0.55549
306.00 0.57552
306.50 0.59548
307.00 0.61618
307.50 0.63862
308.00 0.65810
308.50 0.67741
309.00 0.69667
309.50 0.71587
310.00 0.73725
310.50 0.75743
311.00 0.77726
311.50 0.79740
312.00 0.81970
312.50 0.84119
313.00 0.86159
313.50 0.88265
314.00 0.90450
314.50 0.92633
315.00 0.94868
315.50 0.97198
316.00 0.99507
316.50 1.01815
317.00 1.04152
317.50 1.06499
318.00 1.08914
318.50 1.11429
319.00 1.13914
319.50 1.16399
320.00 1.18883
320.50 1.21470
321.00 1.24046
321.50 1.26606
322.00 1.29165
322.50 1.31726
323.00 1.34343
323.50 1.36899
324.00 1.39428
324.50 1.41958
325.00 1.44488
325.50 1.46929
326.00 1.49288
326.50 1.51646
327.00 1.53843
327.50 1.55918
328.00 1.57992
328.50 1.60067
329.00 1.62351
329.50 1.64535
330.00 1.66535
330.50 1.68536
331.00 1.70539
331.50 1.72432
332.00 1.74308
332.50 1.76064
333.00 1.77726
333.50 1.79390
334.00 1.81068
334.50 1.82784
335.00 1.84232
335.50 1.85668
336.00 1.87108
336.50 1.88476
337.00 1.89533
337.50 1.90592
338.00 1.91653
338.50 1.92568
339.00 1.93368
339.50 1.94171
340.00 1.94698
340.50 1.95048
341.00 1.95402
341.50 1.95991
342.00 1.96612
342.50 1.97239
343.00 1.97528
343.50 1.97711
344.00 1.97902
344.50 1.98100
345.00 1.98477
345.50 1.98924
346.00 1.99126
346.50 1.99242
347.00 1.99219
347.50 1.99184
348.00 1.99159
348.50 1.99145
349.00 1.99176
349.50 1.99277
350.00 1.99304
350.50 1.99089
351.00 1.98885
351.50 1.98694
352.00 1.98562
352.50 1.98478
353.00 1.98392
353.50 1.98165
354.00 1.97952
354.50 1.97753
355.00 1.97585
355.50 1.97431
356.00 1.97290
356.50 1.97164
357.00 1.97052
357.50 1.97024
358.00 1.96959
358.50 1.96915
359.00 1.96887
359.50 1.96874
360.00 1.96876
