phi[deg] B[T]
0.00 1.39796
0.50 1.39767
1.00 1.39748
1.50 1.39774
2.00 1.39810
2.50 1.39830
3.00 1.39848
3.50 1.39869
4.00 1.39901
4.50 1.39948
5.00 1.40011
5.50 1.40084
6.00 1.40104
6.50 1.40105
7.00 1.40116
7.50 1.40158
8.00 1.40254
8.50 1.40359
9.00 1.40458
9.50 1.40389
10.00 1.40330
10.50 1.40279
11.00 1.40238
11.50 1.40205
12.00 1.40272
12.50 1.40394
13.00 1.40480
13.50 1.40519
14.00 1.40432
14.50 1.40190
15.00 1.39953
15.50 1.39721
16.00 1.39494
16.50 1.39274
17.00 1.39119
17.50 1.39085
18.00 1.38640
18.50 1.38068
19.00 1.37439
19.50 1.36812
20.00 1.36188
20.50 1.35567
21.00 1.34949
21.50 1.34285
22.00 1.33559
22.50 1.32652
23.00 1.31696
23.50 1.30740
24.00 1.29789
24.50 1.28842
25.00 1.27899
25.50 1.26961
26.00 1.26027
26.50 1.25098
27.00 1.24257
27.50 1.23673
28.00 1.22679
28.50 1.21686
29.00 1.20694
29.50 1.19703
30.00 1.18714
30.50 1.17726
31.00 1.16905
31.50 1.16650
32.00 1.16011
32.50 1.15308
33.00 1.14217
33.50 1.12900
34.00 1.11573
34.50 1.10236
35.00 1.08823
35.50 1.07366
36.00 1.05900
36.50 1.04259
37.00 1.02135
37.50 1.00353
38.00 0.98553
38.50 0.96444
39.00 0.93779
39.50 0.91097
40.00 0.88357
40.50 0.85432
41.00 0.82438
41.50 0.79426
42.00 0.76306
42.50 0.72916
43.00 0.69636
43.50 0.66325
44.00 0.62581
44.50 0.58816
45.00 0.55163
45.50 0.51731
46.00 0.48285
46.50 0.44826
47.00 0.41379
47.50 0.37934
48.00 0.34595
48.50 0.31876
49.00 0.29208
49.50 0.26539
50.00 0.23864
50.50 0.21859
51.00 0.20085
51.50 0.18263
52.00 0.16426
52.50 0.14588
53.00 0.13121
53.50 0.11891
54.00 0.10740
54.50 0.09935
55.00 0.09130
55.50 0.08327
56.00 0.07525
56.50 0.06724
57.00 0.05925
57.50 0.05174
58.00 0.04574
58.50 0.04006
59.00 0.03717
59.50 0.03429
60.00 0.03142
60.50 0.02856
61.00 0.02571
61.50 0.02286
62.00 0.02001
62.50 0.01758
63.00 0.01621
63.50 0.01485
64.00 0.01348
64.50 0.01211
65.00 0.01082
65.50 0.00964
66.00 0.00847
66.50 0.00775
67.00 0.00716
67.50 0.00657
68.00 0.00597
68.50 0.00538
69.00 0.00479
69.50 0.00420
70.00 0.00376
70.50 0.00348
71.00 0.00320
71.50 0.00292
72.00 0.00264
72.50 0.00236
73.00 0.00208
73.50 0.00183
74.00 0.00169
74.50 0.00156
75.00 0.00143
75.50 0.00130
76.00 0.00117
76.50 0.00105
77.00 0.00093
77.50 0.00086
78.00 0.00079
78.50 0.00072
79.00 0.00065
79.50 0.00059
80.00 0.00054
80.50 0.00050
81.00 0.00045
81.50 0.00041
82.00 0.00038
82.50 0.00035
83.00 0.00032
83.50 0.00029
84.00 0.00027
84.50 0.00024
85.00 0.00023
85.50 0.00021
86.00 0.00020
86.50 0.00018
87.00 0.00017
87.50 0.00015
88.00 0.00014
88.50 0.00014
89.00 0.00013
89.50 0.00012
90.00 0.00012
90.00 0.00012
90.50 0.00012
91.00 0.00013
91.50 0.00014
92.00 0.00014
92.50 0.00015
93.00 0.00017
93.50 0.00018
94.00 0.00020
94.50 0.00021
95.00 0.00023
95.50 0.00024
96.00 0.00027
96.50 0.00029
97.00 0.00032
97.50 0.00035
98.00 0.00038
98.50 0.00041
99.00 0.00045
99.50 0.00050
100.00 0.00054
100.50 0.00059
101.00 0.00065
101.50 0.00072
102.00 0.00079
102.50 0.00086
103.00 0.00093
103.50 0.00105
104.00 0.00117
104.50 0.00130
105.00 0.00143
105.50 0.00156
106.00 0.00169
106.50 0.00183
107.00 0.00208
107.50 0.00236
108.00 0.00264
108.50 0.00292
109.00 0.00320
109.50 0.00348
110.00 0.00376
110.50 0.00420
111.00 0.00479
111.50 0.00538
112.00 0.00597
112.50 0.00657
113.00 0.00716
113.50 0.00775
114.00 0.00847
114.50 0.00964
115.00 0.01082
115.50 0.01211
116.00 0.01348
116.50 0.01485
117.00 0.01621
117.50 0.01758
118.00 0.02001
118.50 0.02286
119.00 0.02571
119.50 0.02856
120.00 0.03142
120.50 0.03429
121.00 0.03717
121.50 0.04006
122.00 0.04574
122.50 0.05174
123.00 0.05925
123.50 0.06724
124.00 0.07525
124.50 0.08327
125.00 0.09130
125.50 0.09935
126.00 0.10740
126.50 0.11891
127.00 0.13121
127.50 0.14588
128.00 0.16426
128.50 0.18263
129.00 0.20085
129.50 0.21859
130.00 0.23864
130.50 0.26539
131.00 0.29208
131.50 0.31876
132.00 0.34595
132.50 0.37934
133.00 0.41379
133.50 0.44826
134.00 0.48285
134.50 0.51731
135.00 0.55163
135.50 0.58816
136.00 0.62581
136.50 0.66325
137.00 0.69636
137.50 0.72916
138.00 0.76306
138.50 0.79426
139.00 0.82438
139.50 0.85432
140.00 0.88357
140.50 0.91097
141.00 0.93779
141.50 0.96444
142.00 0.98553
142.50 1.00353
143.00 1.02135
143.50 1.04259
144.00 1.05900
144.50 1.07366
145.00 1.08823
145.50 1.10236
146.00 1.11573
146.50 1.12900
147.00 1.14217
147.50 1.15308
148.00 1.16011
148.50 1.16650
149.00 1.16905
149.50 1.17726
150.00 1.18714
150.50 1.19703
151.00 1.20694
151.50 1.21686
152.00 1.22679
152.50 1.23673
153.00 1.24257
153.50 1.25098
154.00 1.26027
154.50 1.26961
155.00 1.27899
155.50 1.28842
156.00 1.29789
156.50 1.30740
157.00 1.31696
157.50 1.32652
158.00 1.33559
158.50 1.34285
159.00 1.34949
159.50 1.35567
160.00 1.36188
160.50 1.36812
161.00 1.37439
161.50 1.38068
162.00 1.38640
162.50 1.39085
163.00 1.39119
163.50 1.39274
164.00 1.39494
164.50 1.39721
165.00 1.39953
165.50 1.40190
166.00 1.40432
166.50 1.40519
167.00 1.40480
167.50 1.40394
168.00 1.40272
168.50 1.40205
169.00 1.40238
169.50 1.40279
170.00 1.40330
170.50 1.40389
171.00 1.40458
171.50 1.40359
172.00 1.40254
172.50 1.40158
173.00 1.40116
173.50 1.40105
174.00 1.40104
174.50 1.40084
175.00 1.40011
175.50 1.39948
176.00 1.39901
176.50 1.39869
177.00 1.39848
177.50 1.39830
178.00 1.39810
178.50 1.39774
179.00 1.39748
179.50 1.39767
180.00 1.39796
180.00 1.39796
180.50 1.39767
181.00 1.39748
181.50 1.39774
182.00 1.39810
182.50 1.39830
183.00 1.39848
183.50 1.39869
184.00 1.39901
184.50 1.39948
185.00 1.40011
185.50 1.40084
186.00 1.40104
186.50 1.40105
187.00 1.40116
187.50 1.40158
188.00 1.40254
188.50 1.40359
189.00 1.40458
189.50 1.40389
190.00 1.40330
190.50 1.40279
191.00 1.40238
191.50 1.40205
192.00 1.40272
192.50 1.40394
193.00 1.40480
193.50 1.40519
194.00 1.40432
194.50 1.40190
195.00 1.39953
195.50 1.39721
196.00 1.39494
196.50 1.39274
197.00 1.39119
197.50 1.39085
198.00 1.38640
198.50 1.38068
199.00 1.37439
199.50 1.36812
200.00 1.36188
200.50 1.35567
201.00 1.34949
201.50 1.34285
202.00 1.33559
202.50 1.32652
203.00 1.31696
203.50 1.30740
204.00 1.29789
204.50 1.28842
205.00 1.27899
205.50 1.26961
206.00 1.26027
206.50 1.25098
207.00 1.24257
207.50 1.23673
208.00 1.22679
208.50 1.21686
209.00 1.20694
209.50 1.19703
210.00 1.18714
210.50 1.17726
211.00 1.16905
211.50 1.16650
212.00 1.16011
212.50 1.15308
213.00 1.14217
213.50 1.12900
214.00 1.11573
214.50 1.10236
215.00 1.08823
215.50 1.07366
216.00 1.05900
216.50 1.04259
217.00 1.02135
217.50 1.00353
218.00 0.98553
218.50 0.96444
219.00 0.93779
219.50 0.91097
220.00 0.88357
220.50 0.85432
221.00 0.82438
221.50 0.79426
222.00 0.76306
222.50 0.72916
223.00 0.69636
223.50 0.66325
224.00 0.62581
224.50 0.58816
225.00 0.55163
225.50 0.51731
226.00 0.48285
226.50 0.44826
227.00 0.41379
227.50 0.37934
228.00 0.34595
228.50 0.31876
229.00 0.29208
229.50 0.26539
230.00 0.23864
230.50 0.21859
231.00 0.20085
231.50 0.18263
232.00 0.16426
232.50 0.14588
233.00 0.13121
233.50 0.11891
234.00 0.10740
234.50 0.09935
235.00 0.09130
235.50 0.08327
236.00 0.07525
236.50 0.06724
237.00 0.05925
237.50 0.05174
238.00 0.04574
238.50 0.04006
239.00 0.03717
239.50 0.03429
240.00 0.03142
240.50 0.02856
241.00 0.02571
241.50 0.02286
242.00 0.02001
242.50 0.01758
243.00 0.01621
243.50 0.01485
244.00 0.01348
244.50 0.01211
245.00 0.01082
245.50 0.00964
246.00 0.00847
246.50 0.00775
247.00 0.00716
247.50 0.00657
248.00 0.00597
248.50 0.00538
249.00 0.00479
249.50 0.00420
250.00 0.00376
250.50 0.00348
251.00 0.00320
251.50 0.00292
252.00 0.00264
252.50 0.00236
253.00 0.00208
253.50 0.00183
254.00 0.00169
254.50 0.00156
255.00 0.00143
255.50 0.00130
256.00 0.00117
256.50 0.00105
257.00 0.00093
257.50 0.00086
258.00 0.00079
258.50 0.00072
259.00 0.00065
259.50 0.00059
260.00 0.00054
260.50 0.00050
261.00 0.00045
261.50 0.00041
262.00 0.00038
262.50 0.00035
263.00 0.00032
263.50 0.00029
264.00 0.00027
264.50 0.00024
265.00 0.00023
265.50 0.00021
266.00 0.00020
266.50 0.00018
267.00 0.00017
267.50 0.00015
268.00 0.00014
268.50 0.00014
269.00 0.00013
269.50 0.00012
270.00 0.00012
270.00 0.00012
270.50 0.00012
271.00 0.00013
271.50 0.00014
272.00 0.00014
272.50 0.00015
273.00 0.00017
273.50 0.00018
274.00 0.00020
274.50 0.00021
275.00 0.00023
275.50 0.00024
276.00 0.00027
276.50 0.00029
277.00 0.00032
277.50 0.00035
278.00 0.00038
278.50 0.00041
279.00 0.00045
279.50 0.00050
280.00 0.00054
280.50 0.00059
281.00 0.00065
281.50 0.00072
282.00 0.00079
282.50 0.00086
283.00 0.00093
283.50 0.00105
284.00 0.00117
284.50 0.00130
285.00 0.00143
285.50 0.00156
286.00 0.00169
286.50 0.00183
287.00 0.00208
287.50 0.00236
288.00 0.00264
288.50 0.00292
289.00 0.00320
289.50 0.00348
290.00 0.00376
290.50 0.00420
291.00 0.00479
291.50 0.00538
292.00 0.00597
292.50 0.00657
293.00 0.00716
293.50 0.00775
294.00 0.00847
294.50 0.00964
295.00 0.01082
295.50 0.01211
296.00 0.01348
296.50 0.01485
297.00 0.01621
297.50 0.01758
298.00 0.02001
298.50 0.02286
299.00 0.02571
299.50 0.02856
300.00 0.03142
300.50 0.03429
301.00 0.03717
301.50 0.04006
302.00 0.04574
302.50 0.05174
303.00 0.05925
303.50 0.06724
304.00 0.07525
304.50 0.08327
305.00 0.09130
305.50 0.09935
306.00 0.10740
306.50 0.11891
307.00 0.13121
307.50 0.14588
308.00 0.16426
308.50 0.18263
309.00 0.20085
309.50 0.21859
310.00 0.23864
310.50 0.26539
311.00 0.29208
311.50 0.31876
312.00 0.34595
312.50 0.37934
313.00 0.41379
313.50 0.44826
314.00 0.48285
314.50 0.51731
315.00 0.55163
315.50 0.58816
316.00 0.62581
316.50 0.66325
317.00 0.69636
317.50 0.72916
318.00 0.76306
318.50 0.79426
319.00 0.82438
319.50 0.85432
320.00 0.88357
320.50 0.91097
321.00 0.93779
321.50 0.96444
322.00 0.98553
322.50 1.00353
323.00 1.02135
323.50 1.04259
324.00 1.05900
324.50 1.07366
325.00 1.08823
325.50 1.10236
326.00 1.11573
326.50 1.12900
327.00 1.14217
327.50 1.15308
328.00 1.16011
328.50 1.16650
329.00 1.16905
329.50 1.17726
330.00 1.18714
330.50 1.19703
331.00 1.20694
331.50 1.21686
332.00 1.22679
332.50 1.23673
333.00 1.24257
333.50 1.25098
334.00 1.26027
334.50 1.26961
335.00 1.27899
335.50 1.28842
336.00 1.29789
336.50 1.30740
337.00 1.31696
337.50 1.32652
338.00 1.33559
338.50 1.34285
339.00 1.34949
339.50 1.35567
340.00 1.36188
340.50 1.36812
341.00 1.37439
341.50 1.38068
342.00 1.38640
342.50 1.39085
343.00 1.39119
343.50 1.39274
344.00 1.39494
344.50 1.39721
345.00 1.39953
345.50 1.40190
346.00 1.40432
346.50 1.40519
347.00 1.40480
347.50 1.40394
348.00 1.40272
348.50 1.40205
349.00 1.40238
349.50 1.40279
350.00 1.40330
350.50 1.40389
351.00 1.40458
351.50 1.40359
352.00 1.40254
352.50 1.40158
353.00 1.40116
353.50 1.40105
354.00 1.40104
354.50 1.40084
355.00 1.40011
355.50 1.39948
356.00 1.39901
356.50 1.39869
357.00 1.39848
357.50 1.39830
358.00 1.39810
358.50 1.39774
359.00 1.39748
359.50 1.39767
360.00 1.39796
