phi[deg] B[T]
0.00 1.38124
0.50 1.38052
1.00 1.37991
1.50 1.37939
2.00 1.37866
2.50 1.37812
3.00 1.37770
3.50 1.37707
4.00 1.37632
4.50 1.37633
5.00 1.37651
5.50 1.37706
6.00 1.37804
6.50 1.37914
7.00 1.38003
7.50 1.38099
8.00 1.38266
8.50 1.38518
9.00 1.38781
9.50 1.38949
10.00 1.39015
10.50 1.39090
11.00 1.39221
11.50 1.39361
12.00 1.39476
12.50 1.39325
13.00 1.39182
13.50 1.39036
14.00 1.38815
14.50 1.38586
15.00 1.38301
15.50 1.38033
16.00 1.37800
16.50 1.37576
17.00 1.37367
17.50 1.37176
18.00 1.36994
18.50 1.36820
19.00 1.36617
19.50 1.36286
20.00 1.35879
20.50 1.35698
21.00 1.35521
21.50 1.35349
22.00 1.34904
22.50 1.34136
23.00 1.33371
23.50 1.32706
24.00 1.32186
24.50 1.30935
25.00 1.29547
25.50 1.28328
26.00 1.27113
26.50 1.25901
27.00 1.24496
27.50 1.22992
28.00 1.21500
28.50 1.20088
29.00 1.18682
29.50 1.17317
30.00 1.15971
30.50 1.14631
31.00 1.13279
31.50 1.11875
32.00 1.10343
32.50 1.09018
33.00 1.07730
33.50 1.06445
34.00 1.04972
34.50 1.03349
35.00 1.01777
35.50 1.00280
36.00 0.98631
36.50 0.96779
37.00 0.94928
37.50 0.93046
38.00 0.91167
38.50 0.89291
39.00 0.87418
39.50 0.85504
40.00 0.83600
40.50 0.81734
41.00 0.79878
41.50 0.78029
42.00 0.76210
42.50 0.74422
43.00 0.72648
43.50 0.70923
44.00 0.69214
44.50 0.67577
45.00 0.65940
45.50 0.64414
46.00 0.62908
46.50 0.61566
47.00 0.60213
47.50 0.59061
48.00 0.57904
48.50 0.56980
49.00 0.56121
49.50 0.55140
50.00 0.54211
50.50 0.53689
51.00 0.53224
51.50 0.52330
52.00 0.51255
52.50 0.50175
53.00 0.49409
53.50 0.48729
54.00 0.47849
54.50 0.46360
55.00 0.44838
55.50 0.43301
56.00 0.41747
56.50 0.40170
57.00 0.38579
57.50 0.36513
58.00 0.34325
58.50 0.32120
59.00 0.29523
59.50 0.26693
60.00 0.23865
60.50 0.21846
61.00 0.19818
61.50 0.17780
62.00 0.15316
62.50 0.12846
63.00 0.11235
63.50 0.09634
64.00 0.08424
64.50 0.07220
65.00 0.06195
65.50 0.05432
66.00 0.04668
66.50 0.03902
67.00 0.03280
67.50 0.02911
68.00 0.02541
68.50 0.02165
69.00 0.01789
69.50 0.01575
70.00 0.01381
70.50 0.01181
71.00 0.00981
71.50 0.00846
72.00 0.00741
72.50 0.00635
73.00 0.00530
73.50 0.00457
74.00 0.00400
74.50 0.00347
75.00 0.00294
75.50 0.00249
76.00 0.00219
76.50 0.00190
77.00 0.00165
77.50 0.00143
78.00 0.00121
78.50 0.00108
79.00 0.00095
79.50 0.00082
80.00 0.00073
80.50 0.00064
81.00 0.00058
81.50 0.00052
82.00 0.00046
82.50 0.00041
83.00 0.00037
83.50 0.00034
84.00 0.00030
84.50 0.00027
85.00 0.00024
85.50 0.00021
86.00 0.00019
86.50 0.00016
87.00 0.00014
87.50 0.00011
88.00 0.00009
88.50 0.00007
89.00 0.00006
89.50 0.00005
90.00 0.00004
90.00 0.00004
90.50 0.00005
91.00 0.00006
91.50 0.00007
92.00 0.00009
92.50 0.00011
93.00 0.00014
93.50 0.00016
94.00 0.00019
94.50 0.00021
95.00 0.00024
95.50 0.00027
96.00 0.00030
96.50 0.00034
97.00 0.00037
97.50 0.00041
98.00 0.00046
98.50 0.00052
99.00 0.00058
99.50 0.00064
100.00 0.00073
100.50 0.00082
101.00 0.00095
101.50 0.00108
102.00 0.00121
102.50 0.00143
103.00 0.00165
103.50 0.00190
104.00 0.00219
104.50 0.00249
105.00 0.00294
105.50 0.00347
106.00 0.00400
106.50 0.00457
107.00 0.00530
107.50 0.00635
108.00 0.00741
108.50 0.00846
109.00 0.00981
109.50 0.01181
110.00 0.01381
110.50 0.01575
111.00 0.01789
111.50 0.02165
112.00 0.02541
112.50 0.02911
113.00 0.03280
113.50 0.03902
114.00 0.04668
114.50 0.05432
115.00 0.06195
115.50 0.07220
116.00 0.08424
116.50 0.09634
117.00 0.11235
117.50 0.12846
118.00 0.15316
118.50 0.17780
119.00 0.19818
119.50 0.21846
120.00 0.23865
120.50 0.26693
121.00 0.29523
121.50 0.32120
122.00 0.34325
122.50 0.36513
123.00 0.38579
123.50 0.40170
124.00 0.41747
124.50 0.43301
125.00 0.44838
125.50 0.46360
126.00 0.47849
126.50 0.48729
127.00 0.49409
127.50 0.50175
128.00 0.51255
128.50 0.52330
129.00 0.53224
129.50 0.53689
130.00 0.54211
130.50 0.55140
131.00 0.56121
131.50 0.56980
132.00 0.57904
132.50 0.59061
133.00 0.60213
133.50 0.61566
134.00 0.62908
134.50 0.64414
135.00 0.65940
135.50 0.67577
136.00 0.69214
136.50 0.70923
137.00 0.72648
137.50 0.74422
138.00 0.76210
138.50 0.78029
139.00 0.79878
139.50 0.81734
140.00 0.83600
140.50 0.85504
141.00 0.87418
141.50 0.89291
142.00 0.91167
142.50 0.93046
143.00 0.94928
143.50 0.96779
144.00 0.98631
144.50 1.00280
145.00 1.01777
145.50 1.03349
146.00 1.04972
146.50 1.06445
147.00 1.07730
147.50 1.09018
148.00 1.10343
148.50 1.11875
149.00 1.13279
149.50 1.14631
150.00 1.15971
150.50 1.17317
151.00 1.18682
151.50 1.20088
152.00 1.21500
152.50 1.22992
153.00 1.24496
153.50 1.25901
154.00 1.27113
154.50 1.28328
155.00 1.29547
155.50 1.30935
156.00 1.32186
156.50 1.32706
157.00 1.33371
157.50 1.34136
158.00 1.34904
158.50 1.35349
159.00 1.35521
159.50 1.35698
160.00 1.35879
160.50 1.36286
161.00 1.36617
161.50 1.36820
162.00 1.36994
162.50 1.37176
163.00 1.37367
163.50 1.37576
164.00 1.37800
164.50 1.38033
165.00 1.38301
165.50 1.38586
166.00 1.38815
166.50 1.39036
167.00 1.39182
167.50 1.39325
168.00 1.39476
168.50 1.39361
169.00 1.39221
169.50 1.39090
170.00 1.39015
170.50 1.38949
171.00 1.38781
171.50 1.38518
172.00 1.38266
172.50 1.38099
173.00 1.38003
173.50 1.37914
174.00 1.37804
174.50 1.37706
175.00 1.37651
175.50 1.37633
176.00 1.37632
176.50 1.37707
177.00 1.37770
177.50 1.37812
178.00 1.37866
178.50 1.37939
179.00 1.37991
179.50 1.38052
180.00 1.38124
180.00 1.38124
180.50 1.38052
181.00 1.37991
181.50 1.37939
182.00 1.37866
182.50 1.37812
183.00 1.37770
183.50 1.37707
184.00 1.37632
184.50 1.37633
185.00 1.37651
185.50 1.37706
186.00 1.37804
186.50 1.37914
187.00 1.38003
187.50 1.38099
188.00 1.38266
188.50 1.38518
189.00 1.38781
189.50 1.38949
190.00 1.39015
190.50 1.39090
191.00 1.39221
191.50 1.39361
192.00 1.39476
192.50 1.39325
193.00 1.39182
193.50 1.39036
194.00 1.38815
194.50 1.38586
195.00 1.38301
195.50 1.38033
196.00 1.37800
196.50 1.37576
197.00 1.37367
197.50 1.37176
198.00 1.36994
198.50 1.36820
199.00 1.36617
199.50 1.36286
200.00 1.35879
200.50 1.35698
201.00 1.35521
201.50 1.35349
202.00 1.34904
202.50 1.34136
203.00 1.33371
203.50 1.32706
204.00 1.32186
204.50 1.30935
205.00 1.29547
205.50 1.28328
206.00 1.27113
206.50 1.25901
207.00 1.24496
207.50 1.22992
208.00 1.21500
208.50 1.20088
209.00 1.18682
209.50 1.17317
210.00 1.15971
210.50 1.14631
211.00 1.13279
211.50 1.11875
212.00 1.10343
212.50 1.09018
213.00 1.07730
213.50 1.06445
214.00 1.04972
214.50 1.03349
215.00 1.01777
215.50 1.00280
216.00 0.98631
216.50 0.96779
217.00 0.94928
217.50 0.93046
218.00 0.91167
218.50 0.89291
219.00 0.87418
219.50 0.85504
220.00 0.83600
220.50 0.81734
221.00 0.79878
221.50 0.78029
222.00 0.76210
222.50 0.74422
223.00 0.72648
223.50 0.70923
224.00 0.69214
224.50 0.67577
225.00 0.65940
225.50 0.64414
226.00 0.62908
226.50 0.61566
227.00 0.60213
227.50 0.59061
228.00 0.57904
228.50 0.56980
229.00 0.56121
229.50 0.55140
230.00 0.54211
230.50 0.53689
231.00 0.53224
231.50 0.52330
232.00 0.51255
232.50 0.50175
233.00 0.49409
233.50 0.48729
234.00 0.47849
234.50 0.46360
235.00 0.44838
235.50 0.43301
236.00 0.41747
236.50 0.40170
237.00 0.38579
237.50 0.36513
238.00 0.34325
238.50 0.32120
239.00 0.29523
239.50 0.26693
240.00 0.23865
240.50 0.21846
241.00 0.19818
241.50 0.17780
242.00 0.15316
242.50 0.12846
243.00 0.11235
243.50 0.09634
244.00 0.08424
244.50 0.07220
245.00 0.06195
245.50 0.05432
246.00 0.04668
246.50 0.03902
247.00 0.03280
247.50 0.02911
248.00 0.02541
248.50 0.02165
249.00 0.01789
249.50 0.01575
250.00 0.01381
250.50 0.01181
251.00 0.00981
251.50 0.00846
252.00 0.00741
252.50 0.00635
253.00 0.00530
253.50 0.00457
254.00 0.00400
254.50 0.00347
255.00 0.00294
255.50 0.00249
256.00 0.00219
256.50 0.00190
257.00 0.00165
257.50 0.00143
258.00 0.00121
258.50 0.00108
259.00 0.00095
259.50 0.00082
260.00 0.00073
260.50 0.00064
261.00 0.00058
261.50 0.00052
262.00 0.00046
262.50 0.00041
263.00 0.00037
263.50 0.00034
264.00 0.00030
264.50 0.00027
265.00 0.00024
265.50 0.00021
266.00 0.00019
266.50 0.00016
267.00 0.00014
267.50 0.00011
268.00 0.00009
268.50 0.00007
269.00 0.00006
269.50 0.00005
270.00 0.00004
270.00 0.00004
270.50 0.00005
271.00 0.00006
271.50 0.00007
272.00 0.00009
272.50 0.00011
273.00 0.00014
273.50 0.00016
274.00 0.00019
274.50 0.00021
275.00 0.00024
275.50 0.00027
276.00 0.00030
276.50 0.00034
277.00 0.00037
277.50 0.00041
278.00 0.00046
278.50 0.00052
279.00 0.00058
279.50 0.00064
280.00 0.00073
280.50 0.00082
281.00 0.00095
281.50 0.00108
282.00 0.00121
282.50 0.00143
283.00 0.00165
283.50 0.00190
284.00 0.00219
284.50 0.00249
285.00 0.00294
285.50 0.00347
286.00 0.00400
286.50 0.00457
287.00 0.00530
287.50 0.00635
288.00 0.00741
288.50 0.00846
289.00 0.00981
289.50 0.01181
290.00 0.01381
290.50 0.01575
291.00 0.01789
291.50 0.02165
292.00 0.02541
292.50 0.02911
293.00 0.03280
293.50 0.03902
294.00 0.04668
294.50 0.05432
295.00 0.06195
295.50 0.07220
296.00 0.08424
296.50 0.09634
297.00 0.11235
297.50 0.12846
298.00 0.15316
298.50 0.17780
299.00 0.19818
299.50 0.21846
300.00 0.23865
300.50 0.26693
301.00 0.29523
301.50 0.32120
302.00 0.34325
302.50 0.36513
303.00 0.38579
303.50 0.40170
304.00 0.41747
304.50 0.43301
305.00 0.44838
305.50 0.46360
306.00 0.47849
306.50 0.48729
307.00 0.49409
307.50 0.50175
308.00 0.51255
308.50 0.52330
309.00 0.53224
309.50 0.53689
310.00 0.54211
310.50 0.55140
311.00 0.56121
311.50 0.56980
312.00 0.57904
312.50 0.59061
313.00 0.60213
313.50 0.61566
314.00 0.62908
314.50 0.64414
315.00 0.65940
315.50 0.67577
316.00 0.69214
316.50 0.70923
317.00 0.72648
317.50 0.74422
318.00 0.76210
318.50 0.78029
319.00 0.79878
319.50 0.81734
320.00 0.83600
320.50 0.85504
321.00 0.87418
321.50 0.89291
322.00 0.91167
322.50 0.93046
323.00 0.94928
323.50 0.96779
324.00 0.98631
324.50 1.00280
325.00 1.01777
325.50 1.03349
326.00 1.04972
326.50 1.06445
327.00 1.07730
327.50 1.09018
328.00 1.10343
328.50 1.11875
329.00 1.13279
329.50 1.14631
330.00 1.15971
330.50 1.17317
331.00 1.18682
331.50 1.20088
332.00 1.21500
332.50 1.22992
333.00 1.24496
333.50 1.25901
334.00 1.27113
334.50 1.28328
335.00 1.29547
335.50 1.30935
336.00 1.32186
336.50 1.32706
337.00 1.33371
337.50 1.34136
338.00 1.34904
338.50 1.35349
339.00 1.35521
339.50 1.35698
340.00 1.35879
340.50 1.36286
341.00 1.36617
341.50 1.36820
342.00 1.36994
342.50 1.37176
343.00 1.37367
343.50 1.37576
344.00 1.37800
344.50 1.38033
345.00 1.38301
345.50 1.38586
346.00 1.38815
346.50 1.39036
347.00 1.39182
347.50 1.39325
348.00 1.39476
348.50 1.39361
349.00 1.39221
349.50 1.39090
350.00 1.39015
350.50 1.38949
351.00 1.38781
351.50 1.38518
352.00 1.38266
352.50 1.38099
353.00 1.38003
353.50 1.37914
354.00 1.37804
354.50 1.37706
355.00 1.37651
355.50 1.37633
356.00 1.37632
356.50 1.37707
357.00 1.37770
357.50 1.37812
358.00 1.37866
358.50 1.37939
359.00 1.37991
359.50 1.38052
360.00 1.38124
