phi[deg] B[T]
0.00 1.77573
0.50 1.77517
1.00 1.77475
1.50 1.77445
2.00 1.77429
2.50 1.77419
3.00 1.77414
3.50 1.77423
4.00 1.77444
4.50 1.77479
5.00 1.77536
5.50 1.77610
6.00 1.77698
6.50 1.77720
7.00 1.77754
7.50 1.77800
8.00 1.77897
8.50 1.78007
9.00 1.78130
9.50 1.78127
10.00 1.78009
10.50 1.77915
11.00 1.77995
11.50 1.78084
12.00 1.78033
12.50 1.77840
13.00 1.77554
13.50 1.77215
14.00 1.76884
14.50 1.76563
15.00 1.76249
15.50 1.75945
16.00 1.75641
16.50 1.75313
17.00 1.75016
17.50 1.74488
18.00 1.73940
18.50 1.73398
19.00 1.72863
19.50 1.72334
20.00 1.71812
20.50 1.71370
21.00 1.71089
21.50 1.70402
22.00 1.69481
22.50 1.68561
23.00 1.67610
23.50 1.66664
24.00 1.65721
24.50 1.64600
25.00 1.63280
25.50 1.61966
26.00 1.60600
26.50 1.59087
27.00 1.57581
27.50 1.56132
28.00 1.54687
28.50 1.53232
29.00 1.51743
29.50 1.50252
30.00 1.48557
30.50 1.46866
31.00 1.45179
31.50 1.43495
32.00 1.41859
32.50 1.40400
33.00 1.38945
33.50 1.37117
34.00 1.35181
34.50 1.33247
35.00 1.31313
35.50 1.29379
36.00 1.27436
36.50 1.25424
37.00 1.23414
37.50 1.21385
38.00 1.19206
38.50 1.17028
39.00 1.14842
39.50 1.12684
40.00 1.10561
40.50 1.08435
41.00 1.06291
41.50 1.04149
42.00 1.02074
42.50 1.00003
43.00 0.97922
43.50 0.95840
44.00 0.93749
44.50 0.91654
45.00 0.89555
45.50 0.87467
46.00 0.85391
46.50 0.83311
47.00 0.81187
47.50 0.79060
48.00 0.76868
48.50 0.74754
49.00 0.72636
49.50 0.70599
50.00 0.68605
50.50 0.66477
51.00 0.64210
51.50 0.61938
52.00 0.59929
52.50 0.57999
53.00 0.56061
53.50 0.54077
54.00 0.52052
54.50 0.50019
55.00 0.47979
55.50 0.45775
56.00 0.43555
56.50 0.41399
57.00 0.39264
57.50 0.37121
58.00 0.34969
58.50 0.32809
59.00 0.30778
59.50 0.28742
60.00 0.26643
60.50 0.24537
61.00 0.22425
61.50 0.20308
62.00 0.18804
62.50 0.17411
63.00 0.16016
63.50 0.14617
64.00 0.13196
64.50 0.11667
65.00 0.10136
65.50 0.08972
66.00 0.08198
66.50 0.07423
67.00 0.06753
67.50 0.06092
68.00 0.05432
68.50 0.04773
69.00 0.04191
69.50 0.03808
70.00 0.03424
70.50 0.03040
71.00 0.02724
71.50 0.02466
72.00 0.02208
72.50 0.01951
73.00 0.01747
73.50 0.01577
74.00 0.01406
74.50 0.01235
75.00 0.01126
75.50 0.01026
76.00 0.00926
76.50 0.00826
77.00 0.00728
77.50 0.00645
78.00 0.00563
78.50 0.00514
79.00 0.00471
79.50 0.00429
80.00 0.00389
80.50 0.00348
81.00 0.00307
81.50 0.00266
82.00 0.00242
82.50 0.00221
83.00 0.00199
83.50 0.00179
84.00 0.00162
84.50 0.00145
85.00 0.00129
85.50 0.00120
86.00 0.00112
86.50 0.00104
87.00 0.00096
87.50 0.00088
88.00 0.00085
88.50 0.00081
89.00 0.00078
89.50 0.00075
90.00 0.00071
90.00 0.00071
90.50 0.00075
91.00 0.00078
91.50 0.00081
92.00 0.00085
92.50 0.00088
93.00 0.00096
93.50 0.00104
94.00 0.00112
94.50 0.00120
95.00 0.00129
95.50 0.00145
96.00 0.00162
96.50 0.00179
97.00 0.00199
97.50 0.00221
98.00 0.00242
98.50 0.00266
99.00 0.00307
99.50 0.00348
100.00 0.00389
100.50 0.00429
101.00 0.00471
101.50 0.00514
102.00 0.00563
102.50 0.00645
103.00 0.00728
103.50 0.00826
104.00 0.00926
104.50 0.01026
105.00 0.01126
105.50 0.01235
106.00 0.01406
106.50 0.01577
107.00 0.01747
107.50 0.01951
108.00 0.02208
108.50 0.02466
109.00 0.02724
109.50 0.03040
110.00 0.03424
110.50 0.03808
111.00 0.04191
111.50 0.04773
112.00 0.05432
112.50 0.06092
113.00 0.06753
113.50 0.07423
114.00 0.08198
114.50 0.08972
115.00 0.10136
115.50 0.11667
116.00 0.13196
116.50 0.14617
117.00 0.16016
117.50 0.17411
118.00 0.18804
118.50 0.20308
119.00 0.22425
119.50 0.24537
120.00 0.26643
120.50 0.28742
121.00 0.30778
121.50 0.32809
122.00 0.34969
122.50 0.37121
123.00 0.39264
123.50 0.41399
124.00 0.43555
124.50 0.45775
125.00 0.47979
125.50 0.50019
126.00 0.52052
126.50 0.54077
127.00 0.56061
127.50 0.57999
128.00 0.59929
128.50 0.61938
129.00 0.64210
129.50 0.66477
130.00 0.68605
130.50 0.70599
131.00 0.72636
131.50 0.74754
132.00 0.76868
132.50 0.79060
133.00 0.81187
133.50 0.83311
134.00 0.85391
134.50 0.87467
135.00 0.89555
135.50 0.91654
136.00 0.93749
136.50 0.95840
137.00 0.97922
137.50 1.00003
138.00 1.02074
138.50 1.04149
139.00 1.06291
139.50 1.08435
140.00 1.10561
140.50 1.12684
141.00 1.14842
141.50 1.17028
142.00 1.19206
142.50 1.21385
143.00 1.23414
143.50 1.25424
144.00 1.27436
144.50 1.29379
145.00 1.31313
145.50 1.33247
146.00 1.35181
146.50 1.37117
147.00 1.38945
147.50 1.40400
148.00 1.41859
148.50 1.43495
149.00 1.45179
149.50 1.46866
150.00 1.48557
150.50 1.50252
151.00 1.51743
151.50 1.53232
152.00 1.54687
152.50 1.56132
153.00 1.57581
153.50 1.59087
154.00 1.60600
154.50 1.61966
155.00 1.63280
155.50 1.64600
156.00 1.65721
156.50 1.66664
157.00 1.67610
157.50 1.68561
158.00 1.69481
158.50 1.70402
159.00 1.71089
159.50 1.71370
160.00 1.71812
160.50 1.72334
161.00 1.72863
161.50 1.73398
162.00 1.73940
162.50 1.74488
163.00 1.75016
163.50 1.75313
164.00 1.75641
164.50 1.75945
165.00 1.76249
165.50 1.76563
166.00 1.76884
166.50 1.77215
167.00 1.77554
167.50 1.77840
168.00 1.78033
168.50 1.78084
169.00 1.77995
169.50 1.77915
170.00 1.78009
170.50 1.78127
171.00 1.78130
171.50 1.78007
172.00 1.77897
172.50 1.77800
173.00 1.77754
173.50 1.77720
174.00 1.77698
174.50 1.77610
175.00 1.77536
175.50 1.77479
176.00 1.77444
176.50 1.77423
177.00 1.77414
177.50 1.77419
178.00 1.77429
178.50 1.77445
179.00 1.77475
179.50 1.77517
180.00 1.77573
180.00 1.77573
180.50 1.77517
181.00 1.77475
181.50 1.77445
182.00 1.77429
182.50 1.77419
183.00 1.77414
183.50 1.77423
184.00 1.77444
184.50 1.77479
185.00 1.77536
185.50 1.77610
186.00 1.77698
186.50 1.77720
187.00 1.77754
187.50 1.77800
188.00 1.77897
188.50 1.78007
189.00 1.78130
189.50 1.78127
190.00 1.78009
190.50 1.77915
191.00 1.77995
191.50 1.78084
192.00 1.78033
192.50 1.77840
193.00 1.77554
193.50 1.77215
194.00 1.76884
194.50 1.76563
195.00 1.76249
195.50 1.75945
196.00 1.75641
196.50 1.75313
197.00 1.75016
197.50 1.74488
198.00 1.73940
198.50 1.73398
199.00 1.72863
199.50 1.72334
200.00 1.71812
200.50 1.71370
201.00 1.71089
201.50 1.70402
202.00 1.69481
202.50 1.68561
203.00 1.67610
203.50 1.66664
204.00 1.65721
204.50 1.64600
205.00 1.63280
205.50 1.61966
206.00 1.60600
206.50 1.59087
207.00 1.57581
207.50 1.56132
208.00 1.54687
208.50 1.53232
209.00 1.51743
209.50 1.50252
210.00 1.48557
210.50 1.46866
211.00 1.45179
211.50 1.43495
212.00 1.41859
212.50 1.40400
213.00 1.38945
213.50 1.37117
214.00 1.35181
214.50 1.33247
215.00 1.31313
215.50 1.29379
216.00 1.27436
216.50 1.25424
217.00 1.23414
217.50 1.21385
218.00 1.19206
218.50 1.17028
219.00 1.14842
219.50 1.12684
220.00 1.10561
220.50 1.08435
221.00 1.06291
221.50 1.04149
222.00 1.02074
222.50 1.00003
223.00 0.97922
223.50 0.95840
224.00 0.93749
224.50 0.91654
225.00 0.89555
225.50 0.87467
226.00 0.85391
226.50 0.83311
227.00 0.81187
227.50 0.79060
228.00 0.76868
228.50 0.74754
229.00 0.72636
229.50 0.70599
230.00 0.68605
230.50 0.66477
231.00 0.64210
231.50 0.61938
232.00 0.59929
232.50 0.57999
233.00 0.56061
233.50 0.54077
234.00 0.52052
234.50 0.50019
235.00 0.47979
235.50 0.45775
236.00 0.43555
236.50 0.41399
237.00 0.39264
237.50 0.37121
238.00 0.34969
238.50 0.32809
239.00 0.30778
239.50 0.28742
240.00 0.26643
240.50 0.24537
241.00 0.22425
241.50 0.20308
242.00 0.18804
242.50 0.17411
243.00 0.16016
243.50 0.14617
244.00 0.13196
244.50 0.11667
245.00 0.10136
245.50 0.08972
246.00 0.08198
246.50 0.07423
247.00 0.06753
247.50 0.06092
248.00 0.05432
248.50 0.04773
249.00 0.04191
249.50 0.03808
250.00 0.03424
250.50 0.03040
251.00 0.02724
251.50 0.02466
252.00 0.02208
252.50 0.01951
253.00 0.01747
253.50 0.01577
254.00 0.01406
254.50 0.01235
255.00 0.01126
255.50 0.01026
256.00 0.00926
256.50 0.00826
257.00 0.00728
257.50 0.00645
258.00 0.00563
258.50 0.00514
259.00 0.00471
259.50 0.00429
260.00 0.00389
260.50 0.00348
261.00 0.00307
261.50 0.00266
262.00 0.00242
262.50 0.00221
263.00 0.00199
263.50 0.00179
264.00 0.00162
264.50 0.00145
265.00 0.00129
265.50 0.00120
266.00 0.00112
266.50 0.00104
267.00 0.00096
267.50 0.00088
268.00 0.00085
268.50 0.00081
269.00 0.00078
269.50 0.00075
270.00 0.00071
270.00 0.00071
270.50 0.00075
271.00 0.00078
271.50 0.00081
272.00 0.00085
272.50 0.00088
273.00 0.00096
273.50 0.00104
274.00 0.00112
274.50 0.00120
275.00 0.00129
275.50 0.00145
276.00 0.00162
276.50 0.00179
277.00 0.00199
277.50 0.00221
278.00 0.00242
278.50 0.00266
279.00 0.00307
279.50 0.00348
280.00 0.00389
280.50 0.00429
281.00 0.00471
281.50 0.00514
282.00 0.00563
282.50 0.00645
283.00 0.00728
283.50 0.00826
284.00 0.00926
284.50 0.01026
285.00 0.01126
285.50 0.01235
286.00 0.01406
286.50 0.01577
287.00 0.01747
287.50 0.01951
288.00 0.02208
288.50 0.02466
289.00 0.02724
289.50 0.03040
290.00 0.03424
290.50 0.03808
291.00 0.04191
291.50 0.04773
292.00 0.05432
292.50 0.06092
293.00 0.06753
293.50 0.07423
294.00 0.08198
294.50 0.08972
295.00 0.10136
295.50 0.11667
296.00 0.13196
296.50 0.14617
297.00 0.16016
297.50 0.17411
298.00 0.18804
298.50 0.20308
299.00 0.22425
299.50 0.24537
300.00 0.26643
300.50 0.28742
301.00 0.30778
301.50 0.32809
302.00 0.34969
302.50 0.37121
303.00 0.39264
303.50 0.41399
304.00 0.43555
304.50 0.45775
305.00 0.47979
305.50 0.50019
306.00 0.52052
306.50 0.54077
307.00 0.56061
307.50 0.57999
308.00 0.59929
308.50 0.61938
309.00 0.64210
309.50 0.66477
310.00 0.68605
310.50 0.70599
311.00 0.72636
311.50 0.74754
312.00 0.76868
312.50 0.79060
313.00 0.81187
313.50 0.83311
314.00 0.85391
314.50 0.87467
315.00 0.89555
315.50 0.91654
316.00 0.93749
316.50 0.95840
317.00 0.97922
317.50 1.00003
318.00 1.02074
318.50 1.04149
319.00 1.06291
319.50 1.08435
320.00 1.10561
320.50 1.12684
321.00 1.14842
321.50 1.17028
322.00 1.19206
322.50 1.21385
323.00 1.23414
323.50 1.25424
324.00 1.27436
324.50 1.29379
325.00 1.31313
325.50 1.33247
326.00 1.35181
326.50 1.37117
327.00 1.38945
327.50 1.40400
328.00 1.41859
328.50 1.43495
329.00 1.45179
329.50 1.46866
330.00 1.48557
330.50 1.50252
331.00 1.51743
331.50 1.53232
332.00 1.54687
332.50 1.56132
333.00 1.57581
333.50 1.59087
334.00 1.60600
334.50 1.61966
335.00 1.63280
335.50 1.64600
336.00 1.65721
336.50 1.66664
337.00 1.67610
337.50 1.68561
338.00 1.69481
338.50 1.70402
339.00 1.71089
339.50 1.71370
340.00 1.71812
340.50 1.72334
341.00 1.72863
341.50 1.73398
342.00 1.73940
342.50 1.74488
343.00 1.75016
343.50 1.75313
344.00 1.75641
344.50 1.75945
345.00 1.76249
345.50 1.76563
346.00 1.76884
346.50 1.77215
347.00 1.77554
347.50 1.77840
348.00 1.78033
348.50 1.78084
349.00 1.77995
349.50 1.77915
350.00 1.78009
350.50 1.78127
351.00 1.78130
351.50 1.78007
352.00 1.77897
352.50 1.77800
353.00 1.77754
353.50 1.77720
354.00 1.77698
354.50 1.77610
355.00 1.77536
355.50 1.77479
356.00 1.77444
356.50 1.77423
357.00 1.77414
357.50 1.77419
358.00 1.77429
358.50 1.77445
359.00 1.77475
359.50 1.77517
360.00 1.77573
