phi[deg] B[T]
0.00 1.98873
0.50 1.98868
1.00 1.98878
1.50 1.98904
2.00 1.98945
2.50 1.99007
3.00 1.99027
3.50 1.99133
4.00 1.99253
4.50 1.99386
5.00 1.99534
5.50 1.99695
6.00 1.99881
6.50 2.00082
7.00 2.00296
7.50 2.00363
8.00 2.00428
8.50 2.00537
9.00 2.00699
9.50 2.00873
10.00 2.01060
10.50 2.00997
11.00 2.00858
11.50 2.00773
12.00 2.00725
12.50 2.00687
13.00 2.00660
13.50 2.00622
14.00 2.00460
14.50 2.00210
15.00 1.99713
15.50 1.99277
16.00 1.98997
16.50 1.98726
17.00 1.98463
17.50 1.98106
18.00 1.97446
18.50 1.96793
19.00 1.96169
19.50 1.95749
20.00 1.95333
20.50 1.94762
21.00 1.93949
21.50 1.93140
22.00 1.92226
22.50 1.91181
23.00 1.90139
23.50 1.89099
24.00 1.87789
24.50 1.86418
25.00 1.85051
25.50 1.83673
26.00 1.82039
26.50 1.80459
27.00 1.78898
27.50 1.77340
28.00 1.75687
28.50 1.73912
29.00 1.72126
29.50 1.70257
30.00 1.68390
30.50 1.66526
31.00 1.64466
31.50 1.62300
32.00 1.60361
32.50 1.58423
33.00 1.56485
33.50 1.54414
34.00 1.52168
34.50 1.49923
35.00 1.47599
35.50 1.45189
36.00 1.42781
36.50 1.40373
37.00 1.37928
37.50 1.35398
38.00 1.32925
38.50 1.30452
39.00 1.27981
39.50 1.25484
40.00 1.22956
40.50 1.20532
41.00 1.18109
41.50 1.15683
42.00 1.13198
42.50 1.10818
43.00 1.08507
43.50 1.06201
44.00 1.03905
44.50 1.01609
45.00 0.99290
45.50 0.97049
46.00 0.94863
46.50 0.92675
47.00 0.90559
47.50 0.88503
48.00 0.86330
48.50 0.84067
49.00 0.82017
49.50 0.79998
50.00 0.77940
50.50 0.75751
51.00 0.73775
51.50 0.71792
52.00 0.69804
52.50 0.67798
53.00 0.65469
53.50 0.63312
54.00 0.61228
54.50 0.59136
55.00 0.57036
55.50 0.54905
56.00 0.52560
56.50 0.50425
57.00 0.48280
57.50 0.46127
58.00 0.43971
58.50 0.41896
59.00 0.39814
59.50 0.37496
60.00 0.35171
60.50 0.32838
61.00 0.30499
61.50 0.28204
62.00 0.26495
62.50 0.24805
63.00 0.23108
63.50 0.21406
64.00 0.19699
64.50 0.17902
65.00 0.16724
65.50 0.15568
66.00 0.14411
66.50 0.13248
67.00 0.12073
67.50 0.10897
68.00 0.09961
68.50 0.09312
69.00 0.08663
69.50 0.08012
70.00 0.07351
70.50 0.06687
71.00 0.06025
71.50 0.05401
72.00 0.05015
72.50 0.04655
73.00 0.04295
73.50 0.03936
74.00 0.03577
74.50 0.03218
75.00 0.02961
75.50 0.02762
76.00 0.02564
76.50 0.02366
77.00 0.02168
77.50 0.01962
78.00 0.01757
78.50 0.01623
79.00 0.01517
79.50 0.01411
80.00 0.01305
80.50 0.01200
81.00 0.01094
81.50 0.00990
82.00 0.00916
82.50 0.00855
83.00 0.00798
83.50 0.00741
84.00 0.00683
84.50 0.00632
85.00 0.00602
85.50 0.00571
86.00 0.00541
86.50 0.00510
87.00 0.00478
87.50 0.00467
88.00 0.00455
88.50 0.00442
89.00 0.00429
89.50 0.00417
90.00 0.00404
90.00 0.00404
90.50 0.00417
91.00 0.00429
91.50 0.00442
92.00 0.00455
92.50 0.00467
93.00 0.00478
93.50 0.00510
94.00 0.00541
94.50 0.00571
95.00 0.00602
95.50 0.00632
96.00 0.00683
96.50 0.00741
97.00 0.00798
97.50 0.00855
98.00 0.00916
98.50 0.00990
99.00 0.01094
99.50 0.01200
100.00 0.01305
100.50 0.01411
101.00 0.01517
101.50 0.01623
102.00 0.01757
102.50 0.01962
103.00 0.02168
103.50 0.02366
104.00 0.02564
104.50 0.02762
105.00 0.02961
105.50 0.03218
106.00 0.03577
106.50 0.03936
107.00 0.04295
107.50 0.04655
108.00 0.05015
108.50 0.05401
109.00 0.06025
109.50 0.06687
110.00 0.07351
110.50 0.08012
111.00 0.08663
111.50 0.09312
112.00 0.09961
112.50 0.10897
113.00 0.12073
113.50 0.13248
114.00 0.14411
114.50 0.15568
115.00 0.16724
115.50 0.17902
116.00 0.19699
116.50 0.21406
117.00 0.23108
117.50 0.24805
118.00 0.26495
118.50 0.28204
119.00 0.30499
119.50 0.32838
120.00 0.35171
120.50 0.37496
121.00 0.39814
121.50 0.41896
122.00 0.43971
122.50 0.46127
123.00 0.48280
123.50 0.50425
124.00 0.52560
124.50 0.54905
125.00 0.57036
125.50 0.59136
126.00 0.61228
126.50 0.63312
127.00 0.65469
127.50 0.67798
128.00 0.69804
128.50 0.71792
129.00 0.73775
129.50 0.75751
130.00 0.77940
130.50 0.79998
131.00 0.82017
131.50 0.84067
132.00 0.86330
132.50 0.88503
133.00 0.90559
133.50 0.92675
134.00 0.94863
134.50 0.97049
135.00 0.99290
135.50 1.01609
136.00 1.03905
136.50 1.06201
137.00 1.08507
137.50 1.10818
138.00 1.13198
138.50 1.15683
139.00 1.18109
139.50 1.20532
140.00 1.22956
140.50 1.25484
141.00 1.27981
141.50 1.30452
142.00 1.32925
142.50 1.35398
143.00 1.37928
143.50 1.40373
144.00 1.42781
144.50 1.45189
145.00 1.47599
145.50 1.49923
146.00 1.52168
146.50 1.54414
147.00 1.56485
147.50 1.58423
148.00 1.60361
148.50 1.62300
149.00 1.64466
149.50 1.66526
150.00 1.68390
150.50 1.70257
151.00 1.72126
151.50 1.73912
152.00 1.75687
152.50 1.77340
153.00 1.78898
153.50 1.80459
154.00 1.82039
154.50 1.83673
155.00 1.85051
155.50 1.86418
156.00 1.87789
156.50 1.89099
157.00 1.90139
157.50 1.91181
158.00 1.92226
158.50 1.93140
159.00 1.93949
159.50 1.94762
160.00 1.95333
160.50 1.95749
161.00 1.96169
161.50 1.96793
162.00 1.97446
162.50 1.98106
163.00 1.98463
163.50 1.98726
164.00 1.98997
164.50 1.99277
165.00 1.99713
165.50 2.00210
166.00 2.00460
166.50 2.00622
167.00 2.00660
167.50 2.00687
168.00 2.00725
168.50 2.00773
169.00 2.00858
169.50 2.00997
170.00 2.01060
170.50 2.00873
171.00 2.00699
171.50 2.00537
172.00 2.00428
172.50 2.00363
173.00 2.00296
173.50 2.00082
174.00 1.99881
174.50 1.99695
175.00 1.99534
175.50 1.99386
176.00 1.99253
176.50 1.99133
177.00 1.99027
177.50 1.99007
178.00 1.98945
178.50 1.98904
179.00 1.98878
179.50 1.98868
180.00 1.98873
180.00 1.98873
180.50 1.98868
181.00 1.98878
181.50 1.98904
182.00 1.98945
182.50 1.99007
183.00 1.99027
183.50 1.99133
184.00 1.99253
184.50 1.99386
185.00 1.99534
185.50 1.99695
186.00 1.99881
186.50 2.00082
187.00 2.00296
187.50 2.00363
188.00 2.00428
188.50 2.00537
189.00 2.00699
189.50 2.00873
190.00 2.01060
190.50 2.00997
191.00 2.00858
191.50 2.00773
192.00 2.00725
192.50 2.00687
193.00 2.00660
193.50 2.00622
194.00 2.00460
194.50 2.00210
195.00 1.99713
195.50 1.99277
196.00 1.98997
196.50 1.98726
197.00 1.98463
197.50 1.98106
198.00 1.97446
198.50 1.96793
199.00 1.96169
199.50 1.95749
200.00 1.95333
200.50 1.94762
201.00 1.93949
201.50 1.93140
202.00 1.92226
202.50 1.91181
203.00 1.90139
203.50 1.89099
204.00 1.87789
204.50 1.86418
205.00 1.85051
205.50 1.83673
206.00 1.82039
206.50 1.80459
207.00 1.78898
207.50 1.77340
208.00 1.75687
208.50 1.73912
209.00 1.72126
209.50 1.70257
210.00 1.68390
210.50 1.66526
211.00 1.64466
211.50 1.62300
212.00 1.60361
212.50 1.58423
213.00 1.56485
213.50 1.54414
214.00 1.52168
214.50 1.49923
215.00 1.47599
215.50 1.45189
216.00 1.42781
216.50 1.40373
217.00 1.37928
217.50 1.35398
218.00 1.32925
218.50 1.30452
219.00 1.27981
219.50 1.25484
220.00 1.22956
220.50 1.20532
221.00 1.18109
221.50 1.15683
222.00 1.13198
222.50 1.10818
223.00 1.08507
223.50 1.06201
224.00 1.03905
224.50 1.01609
225.00 0.99290
225.50 0.97049
226.00 0.94863
226.50 0.92675
227.00 0.90559
227.50 0.88503
228.00 0.86330
228.50 0.84067
229.00 0.82017
229.50 0.79998
230.00 0.77940
230.50 0.75751
231.00 0.73775
231.50 0.71792
232.00 0.69804
232.50 0.67798
233.00 0.65469
233.50 0.63312
234.00 0.61228
234.50 0.59136
235.00 0.57036
235.50 0.54905
236.00 0.52560
236.50 0.50425
237.00 0.48280
237.50 0.46127
238.00 0.43971
238.50 0.41896
239.00 0.39814
239.50 0.37496
240.00 0.35171
240.50 0.32838
241.00 0.30499
241.50 0.28204
242.00 0.26495
242.50 0.24805
243.00 0.23108
243.50 0.21406
244.00 0.19699
244.50 0.17902
245.00 0.16724
245.50 0.15568
246.00 0.14411
246.50 0.13248
247.00 0.12073
247.50 0.10897
248.00 0.09961
248.50 0.09312
249.00 0.08663
249.50 0.08012
250.00 0.07351
250.50 0.06687
251.00 0.06025
251.50 0.05401
252.00 0.05015
252.50 0.04655
253.00 0.04295
253.50 0.03936
254.00 0.03577
254.50 0.03218
255.00 0.02961
255.50 0.02762
256.00 0.02564
256.50 0.02366
257.00 0.02168
257.50 0.01962
258.00 0.01757
258.50 0.01623
259.00 0.01517
259.50 0.01411
260.00 0.01305
260.50 0.01200
261.00 0.01094
261.50 0.00990
262.00 0.00916
262.50 0.00855
263.00 0.00798
263.50 0.00741
264.00 0.00683
264.50 0.00632
265.00 0.00602
265.50 0.00571
266.00 0.00541
266.50 0.00510
267.00 0.00478
267.50 0.00467
268.00 0.00455
268.50 0.00442
269.00 0.00429
269.50 0.00417
270.00 0.00404
270.00 0.00404
270.50 0.00417
271.00 0.00429
271.50 0.00442
272.00 0.00455
272.50 0.00467
273.00 0.00478
273.50 0.00510
274.00 0.00541
274.50 0.00571
275.00 0.00602
275.50 0.00632
276.00 0.00683
276.50 0.00741
277.00 0.00798
277.50 0.00855
278.00 0.00916
278.50 0.00990
279.00 0.01094
279.50 0.01200
280.00 0.01305
280.50 0.01411
281.00 0.01517
281.50 0.01623
282.00 0.01757
282.50 0.01962
283.00 0.02168
283.50 0.02366
284.00 0.02564
284.50 0.02762
285.00 0.02961
285.50 0.03218
286.00 0.03577
286.50 0.03936
287.00 0.04295
287.50 0.04655
288.00 0.05015
288.50 0.05401
289.00 0.06025
289.50 0.06687
290.00 0.07351
290.50 0.08012
291.00 0.08663
291.50 0.09312
292.00 0.09961
292.50 0.10897
293.00 0.12073
293.50 0.13248
294.00 0.14411
294.50 0.15568
295.00 0.16724
295.50 0.17902
296.00 0.19699
296.50 0.21406
297.00 0.23108
297.50 0.24805
298.00 0.26495
298.50 0.28204
299.00 0.30499
299.50 0.32838
300.00 0.35171
300.50 0.37496
301.00 0.39814
301.50 0.41896
302.00 0.43971
302.50 0.46127
303.00 0.48280
303.50 0.50425
304.00 0.52560
304.50 0.54905
305.00 0.57036
305.50 0.59136
306.00 0.61228
306.50 0.63312
307.00 0.65469
307.50 0.67798
308.00 0.69804
308.50 0.71792
309.00 0.73775
309.50 0.75751
310.00 0.77940
310.50 0.79998
311.00 0.82017
311.50 0.84067
312.00 0.86330
312.50 0.88503
313.00 0.90559
313.50 0.92675
314.00 0.94863
314.50 0.97049
315.00 0.99290
315.50 1.01609
316.00 1.03905
316.50 1.06201
317.00 1.08507
317.50 1.10818
318.00 1.13198
318.50 1.15683
319.00 1.18109
319.50 1.20532
320.00 1.22956
320.50 1.25484
321.00 1.27981
321.50 1.30452
322.00 1.32925
322.50 1.35398
323.00 1.37928
323.50 1.40373
324.00 1.42781
324.50 1.45189
325.00 1.47599
325.50 1.49923
326.00 1.52168
326.50 1.54414
327.00 1.56485
327.50 1.58423
328.00 1.60361
328.50 1.62300
329.00 1.64466
329.50 1.66526
330.00 1.68390
330.50 1.70257
331.00 1.72126
331.50 1.73912
332.00 1.75687
332.50 1.77340
333.00 1.78898
333.50 1.80459
334.00 1.82039
334.50 1.83673
335.00 1.85051
335.50 1.86418
336.00 1.87789
336.50 1.89099
337.00 1.90139
337.50 1.91181
338.00 1.92226
338.50 1.93140
339.00 1.93949
339.50 1.94762
340.00 1.95333
340.50 1.95749
341.00 1.96169
341.50 1.96793
342.00 1.97446
342.50 1.98106
343.00 1.98463
343.50 1.98726
344.00 1.98997
344.50 1.99277
345.00 1.99713
345.50 2.00210
346.00 2.00460
346.50 2.00622
347.00 2.00660
347.50 2.00687
348.00 2.00725
348.50 2.00773
349.00 2.00858
349.50 2.00997
350.00 2.01060
350.50 2.00873
351.00 2.00699
351.50 2.00537
352.00 2.00428
352.50 2.00363
353.00 2.00296
353.50 2.00082
354.00 1.99881
354.50 1.99695
355.00 1.99534
355.50 1.99386
356.00 1.99253
356.50 1.99133
357.00 1.99027
357.50 1.99007
358.00 1.98945
358.50 1.98904
359.00 1.98878
359.50 1.98868
360.00 1.98873
