phi[deg] B[T]
0.00 1.98334
0.50 1.98321
1.00 1.98323
1.50 1.98339
2.00 1.98371
2.50 1.98426
3.00 1.98436
3.50 1.98527
4.00 1.98631
4.50 1.98749
5.00 1.98882
5.50 1.99027
6.00 1.99192
6.50 1.99370
7.00 1.99562
7.50 1.99617
8.00 1.99670
8.50 1.99767
9.00 1.99919
9.50 2.00082
10.00 2.00258
10.50 2.00191
11.00 2.00049
11.50 1.99974
12.00 1.99942
12.50 1.99921
13.00 1.99910
13.50 1.99886
14.00 1.99727
14.50 1.99482
15.00 1.98990
15.50 1.98568
16.00 1.98320
16.50 1.98081
17.00 1.97849
17.50 1.97513
18.00 1.96845
18.50 1.96183
19.00 1.95553
19.50 1.95153
20.00 1.94757
20.50 1.94187
21.00 1.93347
21.50 1.92511
22.00 1.91561
22.50 1.90470
23.00 1.89379
23.50 1.88291
24.00 1.86900
24.50 1.85441
25.00 1.83985
25.50 1.82517
26.00 1.80786
26.50 1.79097
27.00 1.77423
27.50 1.75751
28.00 1.73985
28.50 1.72102
29.00 1.70203
29.50 1.68202
30.00 1.66202
30.50 1.64205
31.00 1.62024
31.50 1.59743
32.00 1.57676
32.50 1.55609
33.00 1.53542
33.50 1.51353
34.00 1.49003
34.50 1.46652
35.00 1.44223
35.50 1.41709
36.00 1.39194
36.50 1.36681
37.00 1.34140
37.50 1.31535
38.00 1.28990
38.50 1.26447
39.00 1.23904
39.50 1.21343
40.00 1.18769
40.50 1.16300
41.00 1.13832
41.50 1.11362
42.00 1.08859
42.50 1.06457
43.00 1.04124
43.50 1.01801
44.00 0.99504
44.50 0.97208
45.00 0.94889
45.50 0.92664
46.00 0.90491
46.50 0.88316
47.00 0.86220
47.50 0.84189
48.00 0.82048
48.50 0.79825
49.00 0.77818
49.50 0.75841
50.00 0.73829
50.50 0.71697
51.00 0.69780
51.50 0.67859
52.00 0.65932
52.50 0.63988
53.00 0.61746
53.50 0.59677
54.00 0.57682
54.50 0.55680
55.00 0.53671
55.50 0.51633
56.00 0.49402
56.50 0.47378
57.00 0.45346
57.50 0.43306
58.00 0.41264
58.50 0.39299
59.00 0.37328
59.50 0.35150
60.00 0.32965
60.50 0.30774
61.00 0.28577
61.50 0.26422
62.00 0.24819
62.50 0.23233
63.00 0.21641
63.50 0.20045
64.00 0.18443
64.50 0.16762
65.00 0.15659
65.50 0.14576
66.00 0.13493
66.50 0.12403
67.00 0.11303
67.50 0.10201
68.00 0.09324
68.50 0.08716
69.00 0.08108
69.50 0.07500
70.00 0.06880
70.50 0.06259
71.00 0.05639
71.50 0.05055
72.00 0.04694
72.50 0.04357
73.00 0.04020
73.50 0.03684
74.00 0.03348
74.50 0.03012
75.00 0.02771
75.50 0.02585
76.00 0.02399
76.50 0.02214
77.00 0.02028
77.50 0.01836
78.00 0.01643
78.50 0.01519
79.00 0.01419
79.50 0.01320
80.00 0.01221
80.50 0.01122
81.00 0.01022
81.50 0.00926
82.00 0.00856
82.50 0.00799
83.00 0.00746
83.50 0.00692
84.00 0.00638
84.50 0.00590
85.00 0.00562
85.50 0.00533
86.00 0.00505
86.50 0.00476
87.00 0.00446
87.50 0.00435
88.00 0.00424
88.50 0.00412
89.00 0.00400
89.50 0.00388
90.00 0.00376
90.00 0.00376
90.50 0.00388
91.00 0.00400
91.50 0.00412
92.00 0.00424
92.50 0.00435
93.00 0.00446
93.50 0.00476
94.00 0.00505
94.50 0.00533
95.00 0.00562
95.50 0.00590
96.00 0.00638
96.50 0.00692
97.00 0.00746
97.50 0.00799
98.00 0.00856
98.50 0.00926
99.00 0.01022
99.50 0.01122
100.00 0.01221
100.50 0.01320
101.00 0.01419
101.50 0.01519
102.00 0.01643
102.50 0.01836
103.00 0.02028
103.50 0.02214
104.00 0.02399
104.50 0.02585
105.00 0.02771
105.50 0.03012
106.00 0.03348
106.50 0.03684
107.00 0.04020
107.50 0.04357
108.00 0.04694
108.50 0.05055
109.00 0.05639
109.50 0.06259
110.00 0.06880
110.50 0.07500
111.00 0.08108
111.50 0.08716
112.00 0.09324
112.50 0.10201
113.00 0.11303
113.50 0.12403
114.00 0.13493
114.50 0.14576
115.00 0.15659
115.50 0.16762
116.00 0.18443
116.50 0.20045
117.00 0.21641
117.50 0.23233
118.00 0.24819
118.50 0.26422
119.00 0.28577
119.50 0.30774
120.00 0.32965
120.50 0.35150
121.00 0.37328
121.50 0.39299
122.00 0.41264
122.50 0.43306
123.00 0.45346
123.50 0.47378
124.00 0.49402
124.50 0.51633
125.00 0.53671
125.50 0.55680
126.00 0.57682
126.50 0.59677
127.00 0.61746
127.50 0.63988
128.00 0.65932
128.50 0.67859
129.00 0.69780
129.50 0.71697
130.00 0.73829
130.50 0.75841
131.00 0.77818
131.50 0.79825
132.00 0.82048
132.50 0.84189
133.00 0.86220
133.50 0.88316
134.00 0.90491
134.50 0.92664
135.00 0.94889
135.50 0.97208
136.00 0.99504
136.50 1.01801
137.00 1.04124
137.50 1.06457
138.00 1.08859
138.50 1.11362
139.00 1.13832
139.50 1.16300
140.00 1.18769
140.50 1.21343
141.00 1.23904
141.50 1.26447
142.00 1.28990
142.50 1.31535
143.00 1.34140
143.50 1.36681
144.00 1.39194
144.50 1.41709
145.00 1.44223
145.50 1.46652
146.00 1.49003
146.50 1.51353
147.00 1.53542
147.50 1.55609
148.00 1.57676
148.50 1.59743
149.00 1.62024
149.50 1.64205
150.00 1.66202
150.50 1.68202
151.00 1.70203
151.50 1.72102
152.00 1.73985
152.50 1.75751
153.00 1.77423
153.50 1.79097
154.00 1.80786
154.50 1.82517
155.00 1.83985
155.50 1.85441
156.00 1.86900
156.50 1.88291
157.00 1.89379
157.50 1.90470
158.00 1.91561
158.50 1.92511
159.00 1.93347
159.50 1.94187
160.00 1.94757
160.50 1.95153
161.00 1.95553
161.50 1.96183
162.00 1.96845
162.50 1.97513
163.00 1.97849
163.50 1.98081
164.00 1.98320
164.50 1.98568
165.00 1.98990
165.50 1.99482
166.00 1.99727
166.50 1.99886
167.00 1.99910
167.50 1.99921
168.00 1.99942
168.50 1.99974
169.00 2.00049
169.50 2.00191
170.00 2.00258
170.50 2.00082
171.00 1.99919
171.50 1.99767
172.00 1.99670
172.50 1.99617
173.00 1.99562
173.50 1.99370
174.00 1.99192
174.50 1.99027
175.00 1.98882
175.50 1.98749
176.00 1.98631
176.50 1.98527
177.00 1.98436
177.50 1.98426
178.00 1.98371
178.50 1.98339
179.00 1.98323
179.50 1.98321
180.00 1.98334
180.00 1.98334
180.50 1.98321
181.00 1.98323
181.50 1.98339
182.00 1.98371
182.50 1.98426
183.00 1.98436
183.50 1.98527
184.00 1.98631
184.50 1.98749
185.00 1.98882
185.50 1.99027
186.00 1.99192
186.50 1.99370
187.00 1.99562
187.50 1.99617
188.00 1.99670
188.50 1.99767
189.00 1.99919
189.50 2.00082
190.00 2.00258
190.50 2.00191
191.00 2.00049
191.50 1.99974
192.00 1.99942
192.50 1.99921
193.00 1.99910
193.50 1.99886
194.00 1.99727
194.50 1.99482
195.00 1.98990
195.50 1.98568
196.00 1.98320
196.50 1.98081
197.00 1.97849
197.50 1.97513
198.00 1.96845
198.50 1.96183
199.00 1.95553
199.50 1.95153
200.00 1.94757
200.50 1.94187
201.00 1.93347
201.50 1.92511
202.00 1.91561
202.50 1.90470
203.00 1.89379
203.50 1.88291
204.00 1.86900
204.50 1.85441
205.00 1.83985
205.50 1.82517
206.00 1.80786
206.50 1.79097
207.00 1.77423
207.50 1.75751
208.00 1.73985
208.50 1.72102
209.00 1.70203
209.50 1.68202
210.00 1.66202
210.50 1.64205
211.00 1.62024
211.50 1.59743
212.00 1.57676
212.50 1.55609
213.00 1.53542
213.50 1.51353
214.00 1.49003
214.50 1.46652
215.00 1.44223
215.50 1.41709
216.00 1.39194
216.50 1.36681
217.00 1.34140
217.50 1.31535
218.00 1.28990
218.50 1.26447
219.00 1.23904
219.50 1.21343
220.00 1.18769
220.50 1.16300
221.00 1.13832
221.50 1.11362
222.00 1.08859
222.50 1.06457
223.00 1.04124
223.50 1.01801
224.00 0.99504
224.50 0.97208
225.00 0.94889
225.50 0.92664
226.00 0.90491
226.50 0.88316
227.00 0.86220
227.50 0.84189
228.00 0.82048
228.50 0.79825
229.00 0.77818
229.50 0.75841
230.00 0.73829
230.50 0.71697
231.00 0.69780
231.50 0.67859
232.00 0.65932
232.50 0.63988
233.00 0.61746
233.50 0.59677
234.00 0.57682
234.50 0.55680
235.00 0.53671
235.50 0.51633
236.00 0.49402
236.50 0.47378
237.00 0.45346
237.50 0.43306
238.00 0.41264
238.50 0.39299
239.00 0.37328
239.50 0.35150
240.00 0.32965
240.50 0.30774
241.00 0.28577
241.50 0.26422
242.00 0.24819
242.50 0.23233
243.00 0.21641
243.50 0.20045
244.00 0.18443
244.50 0.16762
245.00 0.15659
245.50 0.14576
246.00 0.13493
246.50 0.12403
247.00 0.11303
247.50 0.10201
248.00 0.09324
248.50 0.08716
249.00 0.08108
249.50 0.07500
250.00 0.06880
250.50 0.06259
251.00 0.05639
251.50 0.05055
252.00 0.04694
252.50 0.04357
253.00 0.04020
253.50 0.03684
254.00 0.03348
254.50 0.03012
255.00 0.02771
255.50 0.02585
256.00 0.02399
256.50 0.02214
257.00 0.02028
257.50 0.01836
258.00 0.01643
258.50 0.01519
259.00 0.01419
259.50 0.01320
260.00 0.01221
260.50 0.01122
261.00 0.01022
261.50 0.00926
262.00 0.00856
262.50 0.00799
263.00 0.00746
263.50 0.00692
264.00 0.00638
264.50 0.00590
265.00 0.00562
265.50 0.00533
266.00 0.00505
266.50 0.00476
267.00 0.00446
267.50 0.00435
268.00 0.00424
268.50 0.00412
269.00 0.00400
269.50 0.00388
270.00 0.00376
270.00 0.00376
270.50 0.00388
271.00 0.00400
271.50 0.00412
272.00 0.00424
272.50 0.00435
273.00 0.00446
273.50 0.00476
274.00 0.00505
274.50 0.00533
275.00 0.00562
275.50 0.00590
276.00 0.00638
276.50 0.00692
277.00 0.00746
277.50 0.00799
278.00 0.00856
278.50 0.00926
279.00 0.01022
279.50 0.01122
280.00 0.01221
280.50 0.01320
281.00 0.01419
281.50 0.01519
282.00 0.01643
282.50 0.01836
283.00 0.02028
283.50 0.02214
284.00 0.02399
284.50 0.02585
285.00 0.02771
285.50 0.03012
286.00 0.03348
286.50 0.03684
287.00 0.04020
287.50 0.04357
288.00 0.04694
288.50 0.05055
289.00 0.05639
289.50 0.06259
290.00 0.06880
290.50 0.07500
291.00 0.08108
291.50 0.08716
292.00 0.09324
292.50 0.10201
293.00 0.11303
293.50 0.12403
294.00 0.13493
294.50 0.14576
295.00 0.15659
295.50 0.16762
296.00 0.18443
296.50 0.20045
297.00 0.21641
297.50 0.23233
298.00 0.24819
298.50 0.26422
299.00 0.28577
299.50 0.30774
300.00 0.32965
300.50 0.35150
301.00 0.37328
301.50 0.39299
302.00 0.41264
302.50 0.43306
303.00 0.45346
303.50 0.47378
304.00 0.49402
304.50 0.51633
305.00 0.53671
305.50 0.55680
306.00 0.57682
306.50 0.59677
307.00 0.61746
307.50 0.63988
308.00 0.65932
308.50 0.67859
309.00 0.69780
309.50 0.71697
310.00 0.73829
310.50 0.75841
311.00 0.77818
311.50 0.79825
312.00 0.82048
312.50 0.84189
313.00 0.86220
313.50 0.88316
314.00 0.90491
314.50 0.92664
315.00 0.94889
315.50 0.97208
316.00 0.99504
316.50 1.01801
317.00 1.04124
317.50 1.06457
318.00 1.08859
318.50 1.11362
319.00 1.13832
319.50 1.16300
320.00 1.18769
320.50 1.21343
321.00 1.23904
321.50 1.26447
322.00 1.28990
322.50 1.31535
323.00 1.34140
323.50 1.36681
324.00 1.39194
324.50 1.41709
325.00 1.44223
325.50 1.46652
326.00 1.49003
326.50 1.51353
327.00 1.53542
327.50 1.55609
328.00 1.57676
328.50 1.59743
329.00 1.62024
329.50 1.64205
330.00 1.66202
330.50 1.68202
331.00 1.70203
331.50 1.72102
332.00 1.73985
332.50 1.75751
333.00 1.77423
333.50 1.79097
334.00 1.80786
334.50 1.82517
335.00 1.83985
335.50 1.85441
336.00 1.86900
336.50 1.88291
337.00 1.89379
337.50 1.90470
338.00 1.91561
338.50 1.92511
339.00 1.93347
339.50 1.94187
340.00 1.94757
340.50 1.95153
341.00 1.95553
341.50 1.96183
342.00 1.96845
342.50 1.97513
343.00 1.97849
343.50 1.98081
344.00 1.98320
344.50 1.98568
345.00 1.98990
345.50 1.99482
346.00 1.99727
346.50 1.99886
347.00 1.99910
347.50 1.99921
348.00 1.99942
348.50 1.99974
349.00 2.00049
349.50 2.00191
350.00 2.00258
350.50 2.00082
351.00 1.99919
351.50 1.99767
352.00 1.99670
352.50 1.99617
353.00 1.99562
353.50 1.99370
354.00 1.99192
354.50 1.99027
355.00 1.98882
355.50 1.98749
356.00 1.98631
356.50 1.98527
357.00 1.98436
357.50 1.98426
358.00 1.98371
358.50 1.98339
359.00 1.98323
359.50 1.98321
360.00 1.98334
