phi[deg] B[T]
0.00 1.33224
0.50 1.33160
1.00 1.33105
1.50 1.33059
2.00 1.33024
2.50 1.32972
3.00 1.32930
3.50 1.32898
4.00 1.32878
4.50 1.32878
5.00 1.32891
5.50 1.32923
6.00 1.32989
6.50 1.33066
7.00 1.33134
7.50 1.33196
8.00 1.33269
8.50 1.33351
9.00 1.33477
9.50 1.33716
10.00 1.33890
10.50 1.34005
11.00 1.34012
11.50 1.34027
12.00 1.34049
12.50 1.34078
13.00 1.33998
13.50 1.33872
14.00 1.33733
14.50 1.33547
15.00 1.33369
15.50 1.33198
16.00 1.33036
16.50 1.32881
17.00 1.32761
17.50 1.32698
18.00 1.32477
18.50 1.32211
19.00 1.31951
19.50 1.31696
20.00 1.31495
20.50 1.31414
21.00 1.31338
21.50 1.30765
22.00 1.30083
22.50 1.29404
23.00 1.28727
23.50 1.28118
24.00 1.27699
24.50 1.26601
25.00 1.25310
25.50 1.24164
26.00 1.23021
26.50 1.21881
27.00 1.20743
27.50 1.19465
28.00 1.18081
28.50 1.16700
29.00 1.15320
29.50 1.13944
30.00 1.12572
30.50 1.11205
31.00 1.09884
31.50 1.08658
32.00 1.07491
32.50 1.06057
33.00 1.04546
33.50 1.03036
34.00 1.01527
34.50 1.00019
35.00 0.98535
35.50 0.97133
36.00 0.95451
36.50 0.93587
37.00 0.91782
37.50 0.90028
38.00 0.88275
38.50 0.86415
39.00 0.84557
39.50 0.82702
40.00 0.80865
40.50 0.79055
41.00 0.77263
41.50 0.75512
42.00 0.73774
42.50 0.72042
43.00 0.70397
43.50 0.68759
44.00 0.67167
44.50 0.65630
45.00 0.64099
45.50 0.62703
46.00 0.61298
46.50 0.60006
47.00 0.58804
47.50 0.57598
48.00 0.56526
48.50 0.55540
49.00 0.54774
49.50 0.53833
50.00 0.52735
50.50 0.52041
51.00 0.51374
51.50 0.50425
52.00 0.49474
52.50 0.48519
53.00 0.47535
53.50 0.46161
54.00 0.45042
54.50 0.43915
55.00 0.42773
55.50 0.41617
56.00 0.40243
56.50 0.38768
57.00 0.36968
57.50 0.35153
58.00 0.33323
58.50 0.31368
59.00 0.28954
59.50 0.26528
60.00 0.24519
60.50 0.22616
61.00 0.20703
61.50 0.18781
62.00 0.16606
62.50 0.14336
63.00 0.12755
63.50 0.11309
64.00 0.10167
64.50 0.09026
65.00 0.07884
65.50 0.06788
66.00 0.06058
66.50 0.05326
67.00 0.04593
67.50 0.04040
68.00 0.03498
68.50 0.03057
69.00 0.02758
69.50 0.02458
70.00 0.02158
70.50 0.01858
71.00 0.01575
71.50 0.01399
72.00 0.01259
72.50 0.01121
73.00 0.00984
73.50 0.00846
74.00 0.00712
74.50 0.00640
75.00 0.00567
75.50 0.00494
76.00 0.00431
76.50 0.00370
77.00 0.00328
77.50 0.00295
78.00 0.00263
78.50 0.00231
79.00 0.00200
79.50 0.00170
80.00 0.00152
80.50 0.00135
81.00 0.00118
81.50 0.00105
82.00 0.00093
82.50 0.00081
83.00 0.00072
83.50 0.00063
84.00 0.00055
84.50 0.00050
85.00 0.00045
85.50 0.00040
86.00 0.00035
86.50 0.00031
87.00 0.00028
87.50 0.00025
88.00 0.00023
88.50 0.00021
89.00 0.00020
89.50 0.00018
90.00 0.00017
90.00 0.00017
90.50 0.00018
91.00 0.00020
91.50 0.00021
92.00 0.00023
92.50 0.00025
93.00 0.00028
93.50 0.00031
94.00 0.00035
94.50 0.00040
95.00 0.00045
95.50 0.00050
96.00 0.00055
96.50 0.00063
97.00 0.00072
97.50 0.00081
98.00 0.00093
98.50 0.00105
99.00 0.00118
99.50 0.00135
100.00 0.00152
100.50 0.00170
101.00 0.00200
101.50 0.00231
102.00 0.00263
102.50 0.00295
103.00 0.00328
103.50 0.00370
104.00 0.00431
104.50 0.00494
105.00 0.00567
105.50 0.00640
106.00 0.00712
106.50 0.00846
107.00 0.00984
107.50 0.01121
108.00 0.01259
108.50 0.01399
109.00 0.01575
109.50 0.01858
110.00 0.02158
110.50 0.02458
111.00 0.02758
111.50 0.03057
112.00 0.03498
112.50 0.04040
113.00 0.04593
113.50 0.05326
114.00 0.06058
114.50 0.06788
115.00 0.07884
115.50 0.09026
116.00 0.10167
116.50 0.11309
117.00 0.12755
117.50 0.14336
118.00 0.16606
118.50 0.18781
119.00 0.20703
119.50 0.22616
120.00 0.24519
120.50 0.26528
121.00 0.28954
121.50 0.31368
122.00 0.33323
122.50 0.35153
123.00 0.36968
123.50 0.38768
124.00 0.40243
124.50 0.41617
125.00 0.42773
125.50 0.43915
126.00 0.45042
126.50 0.46161
127.00 0.47535
127.50 0.48519
128.00 0.49474
128.50 0.50425
129.00 0.51374
129.50 0.52041
130.00 0.52735
130.50 0.53833
131.00 0.54774
131.50 0.55540
132.00 0.56526
132.50 0.57598
133.00 0.58804
133.50 0.60006
134.00 0.61298
134.50 0.62703
135.00 0.64099
135.50 0.65630
136.00 0.67167
136.50 0.68759
137.00 0.70397
137.50 0.72042
138.00 0.73774
138.50 0.75512
139.00 0.77263
139.50 0.79055
140.00 0.80865
140.50 0.82702
141.00 0.84557
141.50 0.86415
142.00 0.88275
142.50 0.90028
143.00 0.91782
143.50 0.93587
144.00 0.95451
144.50 0.97133
145.00 0.98535
145.50 1.00019
146.00 1.01527
146.50 1.03036
147.00 1.04546
147.50 1.06057
148.00 1.07491
148.50 1.08658
149.00 1.09884
149.50 1.11205
150.00 1.12572
150.50 1.13944
151.00 1.15320
151.50 1.16700
152.00 1.18081
152.50 1.19465
153.00 1.20743
153.50 1.21881
154.00 1.23021
154.50 1.24164
155.00 1.25310
155.50 1.26601
156.00 1.27699
156.50 1.28118
157.00 1.28727
157.50 1.29404
158.00 1.30083
158.50 1.30765
159.00 1.31338
159.50 1.31414
160.00 1.31495
160.50 1.31696
161.00 1.31951
161.50 1.32211
162.00 1.32477
162.50 1.32698
163.00 1.32761
163.50 1.32881
164.00 1.33036
164.50 1.33198
165.00 1.33369
165.50 1.33547
166.00 1.33733
166.50 1.33872
167.00 1.33998
167.50 1.34078
168.00 1.34049
168.50 1.34027
169.00 1.34012
169.50 1.34005
170.00 1.33890
170.50 1.33716
171.00 1.33477
171.50 1.33351
172.00 1.33269
172.50 1.33196
173.00 1.33134
173.50 1.33066
174.00 1.32989
174.50 1.32923
175.00 1.32891
175.50 1.32878
176.00 1.32878
176.50 1.32898
177.00 1.32930
177.50 1.32972
178.00 1.33024
178.50 1.33059
179.00 1.33105
179.50 1.33160
180.00 1.33224
180.00 1.33224
180.50 1.33160
181.00 1.33105
181.50 1.33059
182.00 1.33024
182.50 1.32972
183.00 1.32930
183.50 1.32898
184.00 1.32878
184.50 1.32878
185.00 1.32891
185.50 1.32923
186.00 1.32989
186.50 1.33066
187.00 1.33134
187.50 1.33196
188.00 1.33269
188.50 1.33351
189.00 1.33477
189.50 1.33716
190.00 1.33890
190.50 1.34005
191.00 1.34012
191.50 1.34027
192.00 1.34049
192.50 1.34078
193.00 1.33998
193.50 1.33872
194.00 1.33733
194.50 1.33547
195.00 1.33369
195.50 1.33198
196.00 1.33036
196.50 1.32881
197.00 1.32761
197.50 1.32698
198.00 1.32477
198.50 1.32211
199.00 1.31951
199.50 1.31696
200.00 1.31495
200.50 1.31414
201.00 1.31338
201.50 1.30765
202.00 1.30083
202.50 1.29404
203.00 1.28727
203.50 1.28118
204.00 1.27699
204.50 1.26601
205.00 1.25310
205.50 1.24164
206.00 1.23021
206.50 1.21881
207.00 1.20743
207.50 1.19465
208.00 1.18081
208.50 1.16700
209.00 1.15320
209.50 1.13944
210.00 1.12572
210.50 1.11205
211.00 1.09884
211.50 1.08658
212.00 1.07491
212.50 1.06057
213.00 1.04546
213.50 1.03036
214.00 1.01527
214.50 1.00019
215.00 0.98535
215.50 0.97133
216.00 0.95451
216.50 0.93587
217.00 0.91782
217.50 0.90028
218.00 0.88275
218.50 0.86415
219.00 0.84557
219.50 0.82702
220.00 0.80865
220.50 0.79055
221.00 0.77263
221.50 0.75512
222.00 0.73774
222.50 0.72042
223.00 0.70397
223.50 0.68759
224.00 0.67167
224.50 0.65630
225.00 0.64099
225.50 0.62703
226.00 0.61298
226.50 0.60006
227.00 0.58804
227.50 0.57598
228.00 0.56526
228.50 0.55540
229.00 0.54774
229.50 0.53833
230.00 0.52735
230.50 0.52041
231.00 0.51374
231.50 0.50425
232.00 0.49474
232.50 0.48519
233.00 0.47535
233.50 0.46161
234.00 0.45042
234.50 0.43915
235.00 0.42773
235.50 0.41617
236.00 0.40243
236.50 0.38768
237.00 0.36968
237.50 0.35153
238.00 0.33323
238.50 0.31368
239.00 0.28954
239.50 0.26528
240.00 0.24519
240.50 0.22616
241.00 0.20703
241.50 0.18781
242.00 0.16606
242.50 0.14336
243.00 0.12755
243.50 0.11309
244.00 0.10167
244.50 0.09026
245.00 0.07884
245.50 0.06788
246.00 0.06058
246.50 0.05326
247.00 0.04593
247.50 0.04040
248.00 0.03498
248.50 0.03057
249.00 0.02758
249.50 0.02458
250.00 0.02158
250.50 0.01858
251.00 0.01575
251.50 0.01399
252.00 0.01259
252.50 0.01121
253.00 0.00984
253.50 0.00846
254.00 0.00712
254.50 0.00640
255.00 0.00567
255.50 0.00494
256.00 0.00431
256.50 0.00370
257.00 0.00328
257.50 0.00295
258.00 0.00263
258.50 0.00231
259.00 0.00200
259.50 0.00170
260.00 0.00152
260.50 0.00135
261.00 0.00118
261.50 0.00105
262.00 0.00093
262.50 0.00081
263.00 0.00072
263.50 0.00063
264.00 0.00055
264.50 0.00050
265.00 0.00045
265.50 0.00040
266.00 0.00035
266.50 0.00031
267.00 0.00028
267.50 0.00025
268.00 0.00023
268.50 0.00021
269.00 0.00020
269.50 0.00018
270.00 0.00017
270.00 0.00017
270.50 0.00018
271.00 0.00020
271.50 0.00021
272.00 0.00023
272.50 0.00025
273.00 0.00028
273.50 0.00031
274.00 0.00035
274.50 0.00040
275.00 0.00045
275.50 0.00050
276.00 0.00055
276.50 0.00063
277.00 0.00072
277.50 0.00081
278.00 0.00093
278.50 0.00105
279.00 0.00118
279.50 0.00135
280.00 0.00152
280.50 0.00170
281.00 0.00200
281.50 0.00231
282.00 0.00263
282.50 0.00295
283.00 0.00328
283.50 0.00370
284.00 0.00431
284.50 0.00494
285.00 0.00567
285.50 0.00640
286.00 0.00712
286.50 0.00846
287.00 0.00984
287.50 0.01121
288.00 0.01259
288.50 0.01399
289.00 0.01575
289.50 0.01858
290.00 0.02158
290.50 0.02458
291.00 0.02758
291.50 0.03057
292.00 0.03498
292.50 0.04040
293.00 0.04593
293.50 0.05326
294.00 0.06058
294.50 0.06788
295.00 0.07884
295.50 0.09026
296.00 0.10167
296.50 0.11309
297.00 0.12755
297.50 0.14336
298.00 0.16606
298.50 0.18781
299.00 0.20703
299.50 0.22616
300.00 0.24519
300.50 0.26528
301.00 0.28954
301.50 0.31368
302.00 0.33323
302.50 0.35153
303.00 0.36968
303.50 0.38768
304.00 0.40243
304.50 0.41617
305.00 0.42773
305.50 0.43915
306.00 0.45042
306.50 0.46161
307.00 0.47535
307.50 0.48519
308.00 0.49474
308.50 0.50425
309.00 0.51374
309.50 0.52041
310.00 0.52735
310.50 0.53833
311.00 0.54774
311.50 0.55540
312.00 0.56526
312.50 0.57598
313.00 0.58804
313.50 0.60006
314.00 0.61298
314.50 0.62703
315.00 0.64099
315.50 0.65630
316.00 0.67167
316.50 0.68759
317.00 0.70397
317.50 0.72042
318.00 0.73774
318.50 0.75512
319.00 0.77263
319.50 0.79055
320.00 0.80865
320.50 0.82702
321.00 0.84557
321.50 0.86415
322.00 0.88275
322.50 0.90028
323.00 0.91782
323.50 0.93587
324.00 0.95451
324.50 0.97133
325.00 0.98535
325.50 1.00019
326.00 1.01527
326.50 1.03036
327.00 1.04546
327.50 1.06057
328.00 1.07491
328.50 1.08658
329.00 1.09884
329.50 1.11205
330.00 1.12572
330.50 1.13944
331.00 1.15320
331.50 1.16700
332.00 1.18081
332.50 1.19465
333.00 1.20743
333.50 1.21881
334.00 1.23021
334.50 1.24164
335.00 1.25310
335.50 1.26601
336.00 1.27699
336.50 1.28118
337.00 1.28727
337.50 1.29404
338.00 1.30083
338.50 1.30765
339.00 1.31338
339.50 1.31414
340.00 1.31495
340.50 1.31696
341.00 1.31951
341.50 1.32211
342.00 1.32477
342.50 1.32698
343.00 1.32761
343.50 1.32881
344.00 1.33036
344.50 1.33198
345.00 1.33369
345.50 1.33547
346.00 1.33733
346.50 1.33872
347.00 1.33998
347.50 1.34078
348.00 1.34049
348.50 1.34027
349.00 1.34012
349.50 1.34005
350.00 1.33890
350.50 1.33716
351.00 1.33477
351.50 1.33351
352.00 1.33269
352.50 1.33196
353.00 1.33134
353.50 1.33066
354.00 1.32989
354.50 1.32923
355.00 1.32891
355.50 1.32878
356.00 1.32878
356.50 1.32898
357.00 1.32930
357.50 1.32972
358.00 1.33024
358.50 1.33059
359.00 1.33105
359.50 1.33160
360.00 1.33224
