phi[deg] B[T]
0.00 1.21319
0.50 1.21259
1.00 1.21235
1.50 1.21226
2.00 1.21202
2.50 1.21120
3.00 1.21044
3.50 1.20947
4.00 1.20841
4.50 1.20729
5.00 1.20622
5.50 1.20441
6.00 1.20217
6.50 1.20066
7.00 1.19918
7.50 1.19673
8.00 1.19381
8.50 1.19093
9.00 1.18810
9.50 1.18493
10.00 1.18112
10.50 1.17731
11.00 1.17350
11.50 1.16969
12.00 1.16693
12.50 1.16474
13.00 1.15809
13.50 1.15141
14.00 1.14469
14.50 1.13779
15.00 1.12975
15.50 1.12188
16.00 1.11393
16.50 1.10637
17.00 1.09981
17.50 1.08603
18.00 1.07215
18.50 1.05815
19.00 1.04368
19.50 1.02766
20.00 1.01142
20.50 0.99499
21.00 0.97827
21.50 0.96092
22.00 0.93493
22.50 0.90818
23.00 0.88121
23.50 0.85488
24.00 0.82454
24.50 0.79404
25.00 0.76447
25.50 0.73460
26.00 0.70446
26.50 0.67167
27.00 0.63141
27.50 0.59130
28.00 0.55692
28.50 0.52237
29.00 0.48764
29.50 0.44984
30.00 0.41198
30.50 0.38359
31.00 0.35512
31.50 0.32657
32.00 0.29621
32.50 0.26444
33.00 0.23923
33.50 0.21757
34.00 0.20130
34.50 0.18504
35.00 0.16877
35.50 0.15251
36.00 0.13625
36.50 0.12042
37.00 0.10651
37.50 0.09458
38.00 0.08714
38.50 0.07970
39.00 0.07189
39.50 0.06406
40.00 0.05622
40.50 0.05067
41.00 0.04634
41.50 0.04200
42.00 0.03766
42.50 0.03330
43.00 0.03014
43.50 0.02749
44.00 0.02485
44.50 0.02220
45.00 0.01956
45.50 0.01796
46.00 0.01636
46.50 0.01476
47.00 0.01316
47.50 0.01157
48.00 0.01062
48.50 0.00972
49.00 0.00882
49.50 0.00791
50.00 0.00701
50.50 0.00628
51.00 0.00565
51.50 0.00512
52.00 0.00471
52.50 0.00430
53.00 0.00389
53.50 0.00348
54.00 0.00309
54.50 0.00271
55.00 0.00252
55.50 0.00233
56.00 0.00215
56.50 0.00197
57.00 0.00179
57.50 0.00161
58.00 0.00142
58.50 0.00127
59.00 0.00119
59.50 0.00111
60.00 0.00103
60.50 0.00094
61.00 0.00086
61.50 0.00078
62.00 0.00070
62.50 0.00064
63.00 0.00060
63.50 0.00057
64.00 0.00054
64.50 0.00051
65.00 0.00047
65.50 0.00044
66.00 0.00041
66.50 0.00038
67.00 0.00037
67.50 0.00035
68.00 0.00034
68.50 0.00032
69.00 0.00031
69.50 0.00029
70.00 0.00028
70.50 0.00027
71.00 0.00026
71.50 0.00025
72.00 0.00025
72.50 0.00024
73.00 0.00023
73.50 0.00022
74.00 0.00021
74.50 0.00021
75.00 0.00020
75.50 0.00019
76.00 0.00018
76.50 0.00018
77.00 0.00017
77.50 0.00016
78.00 0.00016
78.50 0.00015
79.00 0.00014
79.50 0.00014
80.00 0.00013
80.50 0.00012
81.00 0.00012
81.50 0.00011
82.00 0.00011
82.50 0.00010
83.00 0.00009
83.50 0.00009
84.00 0.00008
84.50 0.00007
85.00 0.00007
85.50 0.00006
86.00 0.00005
86.50 0.00005
87.00 0.00004
87.50 0.00003
88.00 0.00003
88.50 0.00003
89.00 0.00002
89.50 0.00002
90.00 0.00002
90.00 0.00002
90.50 0.00002
91.00 0.00002
91.50 0.00003
92.00 0.00003
92.50 0.00003
93.00 0.00004
93.50 0.00005
94.00 0.00005
94.50 0.00006
95.00 0.00007
95.50 0.00007
96.00 0.00008
96.50 0.00009
97.00 0.00009
97.50 0.00010
98.00 0.00011
98.50 0.00011
99.00 0.00012
99.50 0.00012
100.00 0.00013
100.50 0.00014
101.00 0.00014
101.50 0.00015
102.00 0.00016
102.50 0.00016
103.00 0.00017
103.50 0.00018
104.00 0.00018
104.50 0.00019
105.00 0.00020
105.50 0.00021
106.00 0.00021
106.50 0.00022
107.00 0.00023
107.50 0.00024
108.00 0.00025
108.50 0.00025
109.00 0.00026
109.50 0.00027
110.00 0.00028
110.50 0.00029
111.00 0.00031
111.50 0.00032
112.00 0.00034
112.50 0.00035
113.00 0.00037
113.50 0.00038
114.00 0.00041
114.50 0.00044
115.00 0.00047
115.50 0.00051
116.00 0.00054
116.50 0.00057
117.00 0.00060
117.50 0.00064
118.00 0.00070
118.50 0.00078
119.00 0.00086
119.50 0.00094
120.00 0.00103
120.50 0.00111
121.00 0.00119
121.50 0.00127
122.00 0.00142
122.50 0.00161
123.00 0.00179
123.50 0.00197
124.00 0.00215
124.50 0.00233
125.00 0.00252
125.50 0.00271
126.00 0.00309
126.50 0.00348
127.00 0.00389
127.50 0.00430
128.00 0.00471
128.50 0.00512
129.00 0.00565
129.50 0.00628
130.00 0.00701
130.50 0.00791
131.00 0.00882
131.50 0.00972
132.00 0.01062
132.50 0.01157
133.00 0.01316
133.50 0.01476
134.00 0.01636
134.50 0.01796
135.00 0.01956
135.50 0.02220
136.00 0.02485
136.50 0.02749
137.00 0.03014
137.50 0.03330
138.00 0.03766
138.50 0.04200
139.00 0.04634
139.50 0.05067
140.00 0.05622
140.50 0.06406
141.00 0.07189
141.50 0.07970
142.00 0.08714
142.50 0.09458
143.00 0.10651
143.50 0.12042
144.00 0.13625
144.50 0.15251
145.00 0.16877
145.50 0.18504
146.00 0.20130
146.50 0.21757
147.00 0.23923
147.50 0.26444
148.00 0.29621
148.50 0.32657
149.00 0.35512
149.50 0.38359
150.00 0.41198
150.50 0.44984
151.00 0.48764
151.50 0.52237
152.00 0.55692
152.50 0.59130
153.00 0.63141
153.50 0.67167
154.00 0.70446
154.50 0.73460
155.00 0.76447
155.50 0.79404
156.00 0.82454
156.50 0.85488
157.00 0.88121
157.50 0.90818
158.00 0.93493
158.50 0.96092
159.00 0.97827
159.50 0.99499
160.00 1.01142
160.50 1.02766
161.00 1.04368
161.50 1.05815
162.00 1.07215
162.50 1.08603
163.00 1.09981
163.50 1.10637
164.00 1.11393
164.50 1.12188
165.00 1.12975
165.50 1.13779
166.00 1.14469
166.50 1.15141
167.00 1.15809
167.50 1.16474
168.00 1.16693
168.50 1.16969
169.00 1.17350
169.50 1.17731
170.00 1.18112
170.50 1.18493
171.00 1.18810
171.50 1.19093
172.00 1.19381
172.50 1.19673
173.00 1.19918
173.50 1.20066
174.00 1.20217
174.50 1.20441
175.00 1.20622
175.50 1.20729
176.00 1.20841
176.50 1.20947
177.00 1.21044
177.50 1.21120
178.00 1.21202
178.50 1.21226
179.00 1.21235
179.50 1.21259
180.00 1.21319
180.00 1.21319
180.50 1.21259
181.00 1.21235
181.50 1.21226
182.00 1.21202
182.50 1.21120
183.00 1.21044
183.50 1.20947
184.00 1.20841
184.50 1.20729
185.00 1.20622
185.50 1.20441
186.00 1.20217
186.50 1.20066
187.00 1.19918
187.50 1.19673
188.00 1.19381
188.50 1.19093
189.00 1.18810
189.50 1.18493
190.00 1.18112
190.50 1.17731
191.00 1.17350
191.50 1.16969
192.00 1.16693
192.50 1.16474
193.00 1.15809
193.50 1.15141
194.00 1.14469
194.50 1.13779
195.00 1.12975
195.50 1.12188
196.00 1.11393
196.50 1.10637
197.00 1.09981
197.50 1.08603
198.00 1.07215
198.50 1.05815
199.00 1.04368
199.50 1.02766
200.00 1.01142
200.50 0.99499
201.00 0.97827
201.50 0.96092
202.00 0.93493
202.50 0.90818
203.00 0.88121
203.50 0.85488
204.00 0.82454
204.50 0.79404
205.00 0.76447
205.50 0.73460
206.00 0.70446
206.50 0.67167
207.00 0.63141
207.50 0.59130
208.00 0.55692
208.50 0.52237
209.00 0.48764
209.50 0.44984
210.00 0.41198
210.50 0.38359
211.00 0.35512
211.50 0.32657
212.00 0.29621
212.50 0.26444
213.00 0.23923
213.50 0.21757
214.00 0.20130
214.50 0.18504
215.00 0.16877
215.50 0.15251
216.00 0.13625
216.50 0.12042
217.00 0.10651
217.50 0.09458
218.00 0.08714
218.50 0.07970
219.00 0.07189
219.50 0.06406
220.00 0.05622
220.50 0.05067
221.00 0.04634
221.50 0.04200
222.00 0.03766
222.50 0.03330
223.00 0.03014
223.50 0.02749
224.00 0.02485
224.50 0.02220
225.00 0.01956
225.50 0.01796
226.00 0.01636
226.50 0.01476
227.00 0.01316
227.50 0.01157
228.00 0.01062
228.50 0.00972
229.00 0.00882
229.50 0.00791
230.00 0.00701
230.50 0.00628
231.00 0.00565
231.50 0.00512
232.00 0.00471
232.50 0.00430
233.00 0.00389
233.50 0.00348
234.00 0.00309
234.50 0.00271
235.00 0.00252
235.50 0.00233
236.00 0.00215
236.50 0.00197
237.00 0.00179
237.50 0.00161
238.00 0.00142
238.50 0.00127
239.00 0.00119
239.50 0.00111
240.00 0.00103
240.50 0.00094
241.00 0.00086
241.50 0.00078
242.00 0.00070
242.50 0.00064
243.00 0.00060
243.50 0.00057
244.00 0.00054
244.50 0.00051
245.00 0.00047
245.50 0.00044
246.00 0.00041
246.50 0.00038
247.00 0.00037
247.50 0.00035
248.00 0.00034
248.50 0.00032
249.00 0.00031
249.50 0.00029
250.00 0.00028
250.50 0.00027
251.00 0.00026
251.50 0.00025
252.00 0.00025
252.50 0.00024
253.00 0.00023
253.50 0.00022
254.00 0.00021
254.50 0.00021
255.00 0.00020
255.50 0.00019
256.00 0.00018
256.50 0.00018
257.00 0.00017
257.50 0.00016
258.00 0.00016
258.50 0.00015
259.00 0.00014
259.50 0.00014
260.00 0.00013
260.50 0.00012
261.00 0.00012
261.50 0.00011
262.00 0.00011
262.50 0.00010
263.00 0.00009
263.50 0.00009
264.00 0.00008
264.50 0.00007
265.00 0.00007
265.50 0.00006
266.00 0.00005
266.50 0.00005
267.00 0.00004
267.50 0.00003
268.00 0.00003
268.50 0.00003
269.00 0.00002
269.50 0.00002
270.00 0.00002
270.00 0.00002
270.50 0.00002
271.00 0.00002
271.50 0.00003
272.00 0.00003
272.50 0.00003
273.00 0.00004
273.50 0.00005
274.00 0.00005
274.50 0.00006
275.00 0.00007
275.50 0.00007
276.00 0.00008
276.50 0.00009
277.00 0.00009
277.50 0.00010
278.00 0.00011
278.50 0.00011
279.00 0.00012
279.50 0.00012
280.00 0.00013
280.50 0.00014
281.00 0.00014
281.50 0.00015
282.00 0.00016
282.50 0.00016
283.00 0.00017
283.50 0.00018
284.00 0.00018
284.50 0.00019
285.00 0.00020
285.50 0.00021
286.00 0.00021
286.50 0.00022
287.00 0.00023
287.50 0.00024
288.00 0.00025
288.50 0.00025
289.00 0.00026
289.50 0.00027
290.00 0.00028
290.50 0.00029
291.00 0.00031
291.50 0.00032
292.00 0.00034
292.50 0.00035
293.00 0.00037
293.50 0.00038
294.00 0.00041
294.50 0.00044
295.00 0.00047
295.50 0.00051
296.00 0.00054
296.50 0.00057
297.00 0.00060
297.50 0.00064
298.00 0.00070
298.50 0.00078
299.00 0.00086
299.50 0.00094
300.00 0.00103
300.50 0.00111
301.00 0.00119
301.50 0.00127
302.00 0.00142
302.50 0.00161
303.00 0.00179
303.50 0.00197
304.00 0.00215
304.50 0.00233
305.00 0.00252
305.50 0.00271
306.00 0.00309
306.50 0.00348
307.00 0.00389
307.50 0.00430
308.00 0.00471
308.50 0.00512
309.00 0.00565
309.50 0.00628
310.00 0.00701
310.50 0.00791
311.00 0.00882
311.50 0.00972
312.00 0.01062
312.50 0.01157
313.00 0.01316
313.50 0.01476
314.00 0.01636
314.50 0.01796
315.00 0.01956
315.50 0.02220
316.00 0.02485
316.50 0.02749
317.00 0.03014
317.50 0.03330
318.00 0.03766
318.50 0.04200
319.00 0.04634
319.50 0.05067
320.00 0.05622
320.50 0.06406
321.00 0.07189
321.50 0.07970
322.00 0.08714
322.50 0.09458
323.00 0.10651
323.50 0.12042
324.00 0.13625
324.50 0.15251
325.00 0.16877
325.50 0.18504
326.00 0.20130
326.50 0.21757
327.00 0.23923
327.50 0.26444
328.00 0.29621
328.50 0.32657
329.00 0.35512
329.50 0.38359
330.00 0.41198
330.50 0.44984
331.00 0.48764
331.50 0.52237
332.00 0.55692
332.50 0.59130
333.00 0.63141
333.50 0.67167
334.00 0.70446
334.50 0.73460
335.00 0.76447
335.50 0.79404
336.00 0.82454
336.50 0.85488
337.00 0.88121
337.50 0.90818
338.00 0.93493
338.50 0.96092
339.00 0.97827
339.50 0.99499
340.00 1.01142
340.50 1.02766
341.00 1.04368
341.50 1.05815
342.00 1.07215
342.50 1.08603
343.00 1.09981
343.50 1.10637
344.00 1.11393
344.50 1.12188
345.00 1.12975
345.50 1.13779
346.00 1.14469
346.50 1.15141
347.00 1.15809
347.50 1.16474
348.00 1.16693
348.50 1.16969
349.00 1.17350
349.50 1.17731
350.00 1.18112
350.50 1.18493
351.00 1.18810
351.50 1.19093
352.00 1.19381
352.50 1.19673
353.00 1.19918
353.50 1.20066
354.00 1.20217
354.50 1.20441
355.00 1.20622
355.50 1.20729
356.00 1.20841
356.50 1.20947
357.00 1.21044
357.50 1.21120
358.00 1.21202
358.50 1.21226
359.00 1.21235
359.50 1.21259
360.00 1.21319
