phi[deg] B[T]
0.00 1.47041
0.50 1.47028
1.00 1.47027
1.50 1.47048
2.00 1.47093
2.50 1.47138
3.00 1.47175
3.50 1.47220
4.00 1.47276
4.50 1.47345
5.00 1.47464
5.50 1.47559
6.00 1.47620
6.50 1.47691
7.00 1.47773
7.50 1.47865
8.00 1.48019
8.50 1.48230
9.00 1.48397
9.50 1.48554
10.00 1.48613
10.50 1.48679
11.00 1.48755
11.50 1.48844
12.00 1.49023
12.50 1.49207
13.00 1.49162
13.50 1.49125
14.00 1.49096
14.50 1.49073
15.00 1.49140
15.50 1.48947
16.00 1.48755
16.50 1.48566
17.00 1.48379
17.50 1.48194
18.00 1.48062
18.50 1.47919
19.00 1.47469
19.50 1.46748
20.00 1.46024
20.50 1.45297
21.00 1.44567
21.50 1.43835
22.00 1.43099
22.50 1.42633
23.00 1.41954
23.50 1.40718
24.00 1.39244
24.50 1.37760
25.00 1.36265
25.50 1.34760
26.00 1.33244
26.50 1.31731
27.00 1.30547
27.50 1.29007
28.00 1.26884
28.50 1.24470
29.00 1.22038
29.50 1.19587
30.00 1.17117
30.50 1.14630
31.00 1.12152
31.50 1.10212
32.00 1.07575
32.50 1.04422
33.00 1.01143
33.50 0.97839
34.00 0.94510
34.50 0.91157
35.00 0.87779
35.50 0.84407
36.00 0.81071
36.50 0.77633
37.00 0.73374
37.50 0.69091
38.00 0.64783
38.50 0.60921
39.00 0.57302
39.50 0.53629
40.00 0.49851
40.50 0.46061
41.00 0.42258
41.50 0.38653
42.00 0.35625
42.50 0.32575
43.00 0.29519
43.50 0.26887
44.00 0.24509
44.50 0.22127
45.00 0.19803
45.50 0.18142
46.00 0.16441
46.50 0.14740
47.00 0.13193
47.50 0.11952
48.00 0.10721
48.50 0.09671
49.00 0.08756
49.50 0.07859
50.00 0.07070
50.50 0.06503
51.00 0.05937
51.50 0.05371
52.00 0.04807
52.50 0.04267
53.00 0.03727
53.50 0.03418
54.00 0.03129
54.50 0.02876
55.00 0.02623
55.50 0.02371
56.00 0.02119
56.50 0.01868
57.00 0.01617
57.50 0.01472
58.00 0.01328
58.50 0.01185
59.00 0.01083
59.50 0.00994
60.00 0.00905
60.50 0.00816
61.00 0.00728
61.50 0.00647
62.00 0.00576
62.50 0.00506
63.00 0.00470
63.50 0.00433
64.00 0.00396
64.50 0.00359
65.00 0.00322
65.50 0.00285
66.00 0.00249
66.50 0.00232
67.00 0.00215
67.50 0.00198
68.00 0.00180
68.50 0.00163
69.00 0.00145
69.50 0.00129
70.00 0.00117
70.50 0.00110
71.00 0.00102
71.50 0.00094
72.00 0.00087
72.50 0.00079
73.00 0.00071
73.50 0.00064
74.00 0.00060
74.50 0.00056
75.00 0.00053
75.50 0.00049
76.00 0.00045
76.50 0.00042
77.00 0.00038
77.50 0.00036
78.00 0.00034
78.50 0.00032
79.00 0.00030
79.50 0.00028
80.00 0.00026
80.50 0.00025
81.00 0.00023
81.50 0.00021
82.00 0.00020
82.50 0.00019
83.00 0.00017
83.50 0.00016
84.00 0.00015
84.50 0.00014
85.00 0.00012
85.50 0.00011
86.00 0.00010
86.50 0.00009
87.00 0.00007
87.50 0.00006
88.00 0.00005
88.50 0.00005
89.00 0.00004
89.50 0.00004
90.00 0.00003
90.00 0.00003
90.50 0.00004
91.00 0.00004
91.50 0.00005
92.00 0.00005
92.50 0.00006
93.00 0.00007
93.50 0.00009
94.00 0.00010
94.50 0.00011
95.00 0.00012
95.50 0.00014
96.00 0.00015
96.50 0.00016
97.00 0.00017
97.50 0.00019
98.00 0.00020
98.50 0.00021
99.00 0.00023
99.50 0.00025
100.00 0.00026
100.50 0.00028
101.00 0.00030
101.50 0.00032
102.00 0.00034
102.50 0.00036
103.00 0.00038
103.50 0.00042
104.00 0.00045
104.50 0.00049
105.00 0.00053
105.50 0.00056
106.00 0.00060
106.50 0.00064
107.00 0.00071
107.50 0.00079
108.00 0.00087
108.50 0.00094
109.00 0.00102
109.50 0.00110
110.00 0.00117
110.50 0.00129
111.00 0.00145
111.50 0.00163
112.00 0.00180
112.50 0.00198
113.00 0.00215
113.50 0.00232
114.00 0.00249
114.50 0.00285
115.00 0.00322
115.50 0.00359
116.00 0.00396
116.50 0.00433
117.00 0.00470
117.50 0.00506
118.00 0.00576
118.50 0.00647
119.00 0.00728
119.50 0.00816
120.00 0.00905
120.50 0.00994
121.00 0.01083
121.50 0.01185
122.00 0.01328
122.50 0.01472
123.00 0.01617
123.50 0.01868
124.00 0.02119
124.50 0.02371
125.00 0.02623
125.50 0.02876
126.00 0.03129
126.50 0.03418
127.00 0.03727
127.50 0.04267
128.00 0.04807
128.50 0.05371
129.00 0.05937
129.50 0.06503
130.00 0.07070
130.50 0.07859
131.00 0.08756
131.50 0.09671
132.00 0.10721
132.50 0.11952
133.00 0.13193
133.50 0.14740
134.00 0.16441
134.50 0.18142
135.00 0.19803
135.50 0.22127
136.00 0.24509
136.50 0.26887
137.00 0.29519
137.50 0.32575
138.00 0.35625
138.50 0.38653
139.00 0.42258
139.50 0.46061
140.00 0.49851
140.50 0.53629
141.00 0.57302
141.50 0.60921
142.00 0.64783
142.50 0.69091
143.00 0.73374
143.50 0.77633
144.00 0.81071
144.50 0.84407
145.00 0.87779
145.50 0.91157
146.00 0.94510
146.50 0.97839
147.00 1.01143
147.50 1.04422
148.00 1.07575
148.50 1.10212
149.00 1.12152
149.50 1.14630
150.00 1.17117
150.50 1.19587
151.00 1.22038
151.50 1.24470
152.00 1.26884
152.50 1.29007
153.00 1.30547
153.50 1.31731
154.00 1.33244
154.50 1.34760
155.00 1.36265
155.50 1.37760
156.00 1.39244
156.50 1.40718
157.00 1.41954
157.50 1.42633
158.00 1.43099
158.50 1.43835
159.00 1.44567
159.50 1.45297
160.00 1.46024
160.50 1.46748
161.00 1.47469
161.50 1.47919
162.00 1.48062
162.50 1.48194
163.00 1.48379
163.50 1.48566
164.00 1.48755
164.50 1.48947
165.00 1.49140
165.50 1.49073
166.00 1.49096
166.50 1.49125
167.00 1.49162
167.50 1.49207
168.00 1.49023
168.50 1.48844
169.00 1.48755
169.50 1.48679
170.00 1.48613
170.50 1.48554
171.00 1.48397
171.50 1.48230
172.00 1.48019
172.50 1.47865
173.00 1.47773
173.50 1.47691
174.00 1.47620
174.50 1.47559
175.00 1.47464
175.50 1.47345
176.00 1.47276
176.50 1.47220
177.00 1.47175
177.50 1.47138
178.00 1.47093
178.50 1.47048
179.00 1.47027
179.50 1.47028
180.00 1.47041
180.00 1.47041
180.50 1.47028
181.00 1.47027
181.50 1.47048
182.00 1.47093
182.50 1.47138
183.00 1.47175
183.50 1.47220
184.00 1.47276
184.50 1.47345
185.00 1.47464
185.50 1.47559
186.00 1.47620
186.50 1.47691
187.00 1.47773
187.50 1.47865
188.00 1.48019
188.50 1.48230
189.00 1.48397
189.50 1.48554
190.00 1.48613
190.50 1.48679
191.00 1.48755
191.50 1.48844
192.00 1.49023
192.50 1.49207
193.00 1.49162
193.50 1.49125
194.00 1.49096
194.50 1.49073
195.00 1.49140
195.50 1.48947
196.00 1.48755
196.50 1.48566
197.00 1.48379
197.50 1.48194
198.00 1.48062
198.50 1.47919
199.00 1.47469
199.50 1.46748
200.00 1.46024
200.50 1.45297
201.00 1.44567
201.50 1.43835
202.00 1.43099
202.50 1.42633
203.00 1.41954
203.50 1.40718
204.00 1.39244
204.50 1.37760
205.00 1.36265
205.50 1.34760
206.00 1.33244
206.50 1.31731
207.00 1.30547
207.50 1.29007
208.00 1.26884
208.50 1.24470
209.00 1.22038
209.50 1.19587
210.00 1.17117
210.50 1.14630
211.00 1.12152
211.50 1.10212
212.00 1.07575
212.50 1.04422
213.00 1.01143
213.50 0.97839
214.00 0.94510
214.50 0.91157
215.00 0.87779
215.50 0.84407
216.00 0.81071
216.50 0.77633
217.00 0.73374
217.50 0.69091
218.00 0.64783
218.50 0.60921
219.00 0.57302
219.50 0.53629
220.00 0.49851
220.50 0.46061
221.00 0.42258
221.50 0.38653
222.00 0.35625
222.50 0.32575
223.00 0.29519
223.50 0.26887
224.00 0.24509
224.50 0.22127
225.00 0.19803
225.50 0.18142
226.00 0.16441
226.50 0.14740
227.00 0.13193
227.50 0.11952
228.00 0.10721
228.50 0.09671
229.00 0.08756
229.50 0.07859
230.00 0.07070
230.50 0.06503
231.00 0.05937
231.50 0.05371
232.00 0.04807
232.50 0.04267
233.00 0.03727
233.50 0.03418
234.00 0.03129
234.50 0.02876
235.00 0.02623
235.50 0.02371
236.00 0.02119
236.50 0.01868
237.00 0.01617
237.50 0.01472
238.00 0.01328
238.50 0.01185
239.00 0.01083
239.50 0.00994
240.00 0.00905
240.50 0.00816
241.00 0.00728
241.50 0.00647
242.00 0.00576
242.50 0.00506
243.00 0.00470
243.50 0.00433
244.00 0.00396
244.50 0.00359
245.00 0.00322
245.50 0.00285
246.00 0.00249
246.50 0.00232
247.00 0.00215
247.50 0.00198
248.00 0.00180
248.50 0.00163
249.00 0.00145
249.50 0.00129
250.00 0.00117
250.50 0.00110
251.00 0.00102
251.50 0.00094
252.00 0.00087
252.50 0.00079
253.00 0.00071
253.50 0.00064
254.00 0.00060
254.50 0.00056
255.00 0.00053
255.50 0.00049
256.00 0.00045
256.50 0.00042
257.00 0.00038
257.50 0.00036
258.00 0.00034
258.50 0.00032
259.00 0.00030
259.50 0.00028
260.00 0.00026
260.50 0.00025
261.00 0.00023
261.50 0.00021
262.00 0.00020
262.50 0.00019
263.00 0.00017
263.50 0.00016
264.00 0.00015
264.50 0.00014
265.00 0.00012
265.50 0.00011
266.00 0.00010
266.50 0.00009
267.00 0.00007
267.50 0.00006
268.00 0.00005
268.50 0.00005
269.00 0.00004
269.50 0.00004
270.00 0.00003
270.00 0.00003
270.50 0.00004
271.00 0.00004
271.50 0.00005
272.00 0.00005
272.50 0.00006
273.00 0.00007
273.50 0.00009
274.00 0.00010
274.50 0.00011
275.00 0.00012
275.50 0.00014
276.00 0.00015
276.50 0.00016
277.00 0.00017
277.50 0.00019
278.00 0.00020
278.50 0.00021
279.00 0.00023
279.50 0.00025
280.00 0.00026
280.50 0.00028
281.00 0.00030
281.50 0.00032
282.00 0.00034
282.50 0.00036
283.00 0.00038
283.50 0.00042
284.00 0.00045
284.50 0.00049
285.00 0.00053
285.50 0.00056
286.00 0.00060
286.50 0.00064
287.00 0.00071
287.50 0.00079
288.00 0.00087
288.50 0.00094
289.00 0.00102
289.50 0.00110
290.00 0.00117
290.50 0.00129
291.00 0.00145
291.50 0.00163
292.00 0.00180
292.50 0.00198
293.00 0.00215
293.50 0.00232
294.00 0.00249
294.50 0.00285
295.00 0.00322
295.50 0.00359
296.00 0.00396
296.50 0.00433
297.00 0.00470
297.50 0.00506
298.00 0.00576
298.50 0.00647
299.00 0.00728
299.50 0.00816
300.00 0.00905
300.50 0.00994
301.00 0.01083
301.50 0.01185
302.00 0.01328
302.50 0.01472
303.00 0.01617
303.50 0.01868
304.00 0.02119
304.50 0.02371
305.00 0.02623
305.50 0.02876
306.00 0.03129
306.50 0.03418
307.00 0.03727
307.50 0.04267
308.00 0.04807
308.50 0.05371
309.00 0.05937
309.50 0.06503
310.00 0.07070
310.50 0.07859
311.00 0.08756
311.50 0.09671
312.00 0.10721
312.50 0.11952
313.00 0.13193
313.50 0.14740
314.00 0.16441
314.50 0.18142
315.00 0.19803
315.50 0.22127
316.00 0.24509
316.50 0.26887
317.00 0.29519
317.50 0.32575
318.00 0.35625
318.50 0.38653
319.00 0.42258
319.50 0.46061
320.00 0.49851
320.50 0.53629
321.00 0.57302
321.50 0.60921
322.00 0.64783
322.50 0.69091
323.00 0.73374
323.50 0.77633
324.00 0.81071
324.50 0.84407
325.00 0.87779
325.50 0.91157
326.00 0.94510
326.50 0.97839
327.00 1.01143
327.50 1.04422
328.00 1.07575
328.50 1.10212
329.00 1.12152
329.50 1.14630
330.00 1.17117
330.50 1.19587
331.00 1.22038
331.50 1.24470
332.00 1.26884
332.50 1.29007
333.00 1.30547
333.50 1.31731
334.00 1.33244
334.50 1.34760
335.00 1.36265
335.50 1.37760
336.00 1.39244
336.50 1.40718
337.00 1.41954
337.50 1.42633
338.00 1.43099
338.50 1.43835
339.00 1.44567
339.50 1.45297
340.00 1.46024
340.50 1.46748
341.00 1.47469
341.50 1.47919
342.00 1.48062
342.50 1.48194
343.00 1.48379
343.50 1.48566
344.00 1.48755
344.50 1.48947
345.00 1.49140
345.50 1.49073
346.00 1.49096
346.50 1.49125
347.00 1.49162
347.50 1.49207
348.00 1.49023
348.50 1.48844
349.00 1.48755
349.50 1.48679
350.00 1.48613
350.50 1.48554
351.00 1.48397
351.50 1.48230
352.00 1.48019
352.50 1.47865
353.00 1.47773
353.50 1.47691
354.00 1.47620
354.50 1.47559
355.00 1.47464
355.50 1.47345
356.00 1.47276
356.50 1.47220
357.00 1.47175
357.50 1.47138
358.00 1.47093
358.50 1.47048
359.00 1.47027
359.50 1.47028
360.00 1.47041
