phi[deg] B[T]
0.00 1.39055
0.50 1.39055
1.00 1.39066
1.50 1.39089
2.00 1.39127
2.50 1.39194
3.00 1.39271
3.50 1.39360
4.00 1.39459
4.50 1.39550
5.00 1.39653
5.50 1.39801
6.00 1.39985
6.50 1.40179
7.00 1.40309
7.50 1.40427
8.00 1.40556
8.50 1.40694
9.00 1.40936
9.50 1.41194
10.00 1.41361
10.50 1.41458
11.00 1.41504
11.50 1.41558
12.00 1.41619
12.50 1.41546
13.00 1.41422
13.50 1.41295
14.00 1.41100
14.50 1.40913
15.00 1.40734
15.50 1.40480
16.00 1.40218
16.50 1.39949
17.00 1.39596
17.50 1.39250
18.00 1.38912
18.50 1.38608
19.00 1.38381
19.50 1.38143
20.00 1.37893
20.50 1.37401
21.00 1.36914
21.50 1.36430
22.00 1.35950
22.50 1.35461
23.00 1.34976
23.50 1.34239
24.00 1.33276
24.50 1.32314
25.00 1.31353
25.50 1.30136
26.00 1.28916
26.50 1.27628
27.00 1.26176
27.50 1.24727
28.00 1.23281
28.50 1.21815
29.00 1.20326
29.50 1.18698
30.00 1.17065
30.50 1.15450
31.00 1.13841
31.50 1.12235
32.00 1.10624
32.50 1.08937
33.00 1.07256
33.50 1.05601
34.00 1.03959
34.50 1.02323
35.00 1.00692
35.50 0.99076
36.00 0.97479
36.50 0.96058
37.00 0.94715
37.50 0.93215
38.00 0.91720
38.50 0.90230
39.00 0.88976
39.50 0.87756
40.00 0.86406
40.50 0.85061
41.00 0.83625
41.50 0.82210
42.00 0.80825
42.50 0.79419
43.00 0.77891
43.50 0.76446
44.00 0.74910
44.50 0.73271
45.00 0.71642
45.50 0.69960
46.00 0.68277
46.50 0.66540
47.00 0.64740
47.50 0.62937
48.00 0.61126
48.50 0.59333
49.00 0.57561
49.50 0.55805
50.00 0.54043
50.50 0.52462
51.00 0.50952
51.50 0.49319
52.00 0.47531
52.50 0.45739
53.00 0.43943
53.50 0.42492
54.00 0.41160
54.50 0.39739
55.00 0.38215
55.50 0.36674
56.00 0.34844
56.50 0.33004
57.00 0.31153
57.50 0.29210
58.00 0.27236
58.50 0.25252
59.00 0.23342
59.50 0.21492
60.00 0.19631
60.50 0.17761
61.00 0.15884
61.50 0.13999
62.00 0.12405
62.50 0.11175
63.00 0.09915
63.50 0.08654
64.00 0.07391
64.50 0.06456
65.00 0.05743
65.50 0.05029
66.00 0.04327
66.50 0.03681
67.00 0.03284
67.50 0.02903
68.00 0.02521
68.50 0.02139
69.00 0.01845
69.50 0.01634
70.00 0.01424
70.50 0.01229
71.00 0.01043
71.50 0.00917
72.00 0.00819
72.50 0.00722
73.00 0.00626
73.50 0.00531
74.00 0.00454
74.50 0.00405
75.00 0.00356
75.50 0.00308
76.00 0.00270
76.50 0.00233
77.00 0.00203
77.50 0.00182
78.00 0.00160
78.50 0.00139
79.00 0.00121
79.50 0.00105
80.00 0.00094
80.50 0.00085
81.00 0.00076
81.50 0.00066
82.00 0.00058
82.50 0.00052
83.00 0.00047
83.50 0.00043
84.00 0.00038
84.50 0.00033
85.00 0.00030
85.50 0.00027
86.00 0.00025
86.50 0.00022
87.00 0.00021
87.50 0.00019
88.00 0.00018
88.50 0.00017
89.00 0.00016
89.50 0.00015
90.00 0.00015
90.00 0.00015
90.50 0.00015
91.00 0.00016
91.50 0.00017
92.00 0.00018
92.50 0.00019
93.00 0.00021
93.50 0.00022
94.00 0.00025
94.50 0.00027
95.00 0.00030
95.50 0.00033
96.00 0.00038
96.50 0.00043
97.00 0.00047
97.50 0.00052
98.00 0.00058
98.50 0.00066
99.00 0.00076
99.50 0.00085
100.00 0.00094
100.50 0.00105
101.00 0.00121
101.50 0.00139
102.00 0.00160
102.50 0.00182
103.00 0.00203
103.50 0.00233
104.00 0.00270
104.50 0.00308
105.00 0.00356
105.50 0.00405
106.00 0.00454
106.50 0.00531
107.00 0.00626
107.50 0.00722
108.00 0.00819
108.50 0.00917
109.00 0.01043
109.50 0.01229
110.00 0.01424
110.50 0.01634
111.00 0.01845
111.50 0.02139
112.00 0.02521
112.50 0.02903
113.00 0.03284
113.50 0.03681
114.00 0.04327
114.50 0.05029
115.00 0.05743
115.50 0.06456
116.00 0.07391
116.50 0.08654
117.00 0.09915
117.50 0.11175
118.00 0.12405
118.50 0.13999
119.00 0.15884
119.50 0.17761
120.00 0.19631
120.50 0.21492
121.00 0.23342
121.50 0.25252
122.00 0.27236
122.50 0.29210
123.00 0.31153
123.50 0.33004
124.00 0.34844
124.50 0.36674
125.00 0.38215
125.50 0.39739
126.00 0.41160
126.50 0.42492
127.00 0.43943
127.50 0.45739
128.00 0.47531
128.50 0.49319
129.00 0.50952
129.50 0.52462
130.00 0.54043
130.50 0.55805
131.00 0.57561
131.50 0.59333
132.00 0.61126
132.50 0.62937
133.00 0.64740
133.50 0.66540
134.00 0.68277
134.50 0.69960
135.00 0.71642
135.50 0.73271
136.00 0.74910
136.50 0.76446
137.00 0.77891
137.50 0.79419
138.00 0.80825
138.50 0.82210
139.00 0.83625
139.50 0.85061
140.00 0.86406
140.50 0.87756
141.00 0.88976
141.50 0.90230
142.00 0.91720
142.50 0.93215
143.00 0.94715
143.50 0.96058
144.00 0.97479
144.50 0.99076
145.00 1.00692
145.50 1.02323
146.00 1.03959
146.50 1.05601
147.00 1.07256
147.50 1.08937
148.00 1.10624
148.50 1.12235
149.00 1.13841
149.50 1.15450
150.00 1.17065
150.50 1.18698
151.00 1.20326
151.50 1.21815
152.00 1.23281
152.50 1.24727
153.00 1.26176
153.50 1.27628
154.00 1.28916
154.50 1.30136
155.00 1.31353
155.50 1.32314
156.00 1.33276
156.50 1.34239
157.00 1.34976
157.50 1.35461
158.00 1.35950
158.50 1.36430
159.00 1.36914
159.50 1.37401
160.00 1.37893
160.50 1.38143
161.00 1.38381
161.50 1.38608
162.00 1.38912
162.50 1.39250
163.00 1.39596
163.50 1.39949
164.00 1.40218
164.50 1.40480
165.00 1.40734
165.50 1.40913
166.00 1.41100
166.50 1.41295
167.00 1.41422
167.50 1.41546
168.00 1.41619
168.50 1.41558
169.00 1.41504
169.50 1.41458
170.00 1.41361
170.50 1.41194
171.00 1.40936
171.50 1.40694
172.00 1.40556
172.50 1.40427
173.00 1.40309
173.50 1.40179
174.00 1.39985
174.50 1.39801
175.00 1.39653
175.50 1.39550
176.00 1.39459
176.50 1.39360
177.00 1.39271
177.50 1.39194
178.00 1.39127
178.50 1.39089
179.00 1.39066
179.50 1.39055
180.00 1.39055
180.00 1.39055
180.50 1.39055
181.00 1.39066
181.50 1.39089
182.00 1.39127
182.50 1.39194
183.00 1.39271
183.50 1.39360
184.00 1.39459
184.50 1.39550
185.00 1.39653
185.50 1.39801
186.00 1.39985
186.50 1.40179
187.00 1.40309
187.50 1.40427
188.00 1.40556
188.50 1.40694
189.00 1.40936
189.50 1.41194
190.00 1.41361
190.50 1.41458
191.00 1.41504
191.50 1.41558
192.00 1.41619
192.50 1.41546
193.00 1.41422
193.50 1.41295
194.00 1.41100
194.50 1.40913
195.00 1.40734
195.50 1.40480
196.00 1.40218
196.50 1.39949
197.00 1.39596
197.50 1.39250
198.00 1.38912
198.50 1.38608
199.00 1.38381
199.50 1.38143
200.00 1.37893
200.50 1.37401
201.00 1.36914
201.50 1.36430
202.00 1.35950
202.50 1.35461
203.00 1.34976
203.50 1.34239
204.00 1.33276
204.50 1.32314
205.00 1.31353
205.50 1.30136
206.00 1.28916
206.50 1.27628
207.00 1.26176
207.50 1.24727
208.00 1.23281
208.50 1.21815
209.00 1.20326
209.50 1.18698
210.00 1.17065
210.50 1.15450
211.00 1.13841
211.50 1.12235
212.00 1.10624
212.50 1.08937
213.00 1.07256
213.50 1.05601
214.00 1.03959
214.50 1.02323
215.00 1.00692
215.50 0.99076
216.00 0.97479
216.50 0.96058
217.00 0.94715
217.50 0.93215
218.00 0.91720
218.50 0.90230
219.00 0.88976
219.50 0.87756
220.00 0.86406
220.50 0.85061
221.00 0.83625
221.50 0.82210
222.00 0.80825
222.50 0.79419
223.00 0.77891
223.50 0.76446
224.00 0.74910
224.50 0.73271
225.00 0.71642
225.50 0.69960
226.00 0.68277
226.50 0.66540
227.00 0.64740
227.50 0.62937
228.00 0.61126
228.50 0.59333
229.00 0.57561
229.50 0.55805
230.00 0.54043
230.50 0.52462
231.00 0.50952
231.50 0.49319
232.00 0.47531
232.50 0.45739
233.00 0.43943
233.50 0.42492
234.00 0.41160
234.50 0.39739
235.00 0.38215
235.50 0.36674
236.00 0.34844
236.50 0.33004
237.00 0.31153
237.50 0.29210
238.00 0.27236
238.50 0.25252
239.00 0.23342
239.50 0.21492
240.00 0.19631
240.50 0.17761
241.00 0.15884
241.50 0.13999
242.00 0.12405
242.50 0.11175
243.00 0.09915
243.50 0.08654
244.00 0.07391
244.50 0.06456
245.00 0.05743
245.50 0.05029
246.00 0.04327
246.50 0.03681
247.00 0.03284
247.50 0.02903
248.00 0.02521
248.50 0.02139
249.00 0.01845
249.50 0.01634
250.00 0.01424
250.50 0.01229
251.00 0.01043
251.50 0.00917
252.00 0.00819
252.50 0.00722
253.00 0.00626
253.50 0.00531
254.00 0.00454
254.50 0.00405
255.00 0.00356
255.50 0.00308
256.00 0.00270
256.50 0.00233
257.00 0.00203
257.50 0.00182
258.00 0.00160
258.50 0.00139
259.00 0.00121
259.50 0.00105
260.00 0.00094
260.50 0.00085
261.00 0.00076
261.50 0.00066
262.00 0.00058
262.50 0.00052
263.00 0.00047
263.50 0.00043
264.00 0.00038
264.50 0.00033
265.00 0.00030
265.50 0.00027
266.00 0.00025
266.50 0.00022
267.00 0.00021
267.50 0.00019
268.00 0.00018
268.50 0.00017
269.00 0.00016
269.50 0.00015
270.00 0.00015
270.00 0.00015
270.50 0.00015
271.00 0.00016
271.50 0.00017
272.00 0.00018
272.50 0.00019
273.00 0.00021
273.50 0.00022
274.00 0.00025
274.50 0.00027
275.00 0.00030
275.50 0.00033
276.00 0.00038
276.50 0.00043
277.00 0.00047
277.50 0.00052
278.00 0.00058
278.50 0.00066
279.00 0.00076
279.50 0.00085
280.00 0.00094
280.50 0.00105
281.00 0.00121
281.50 0.00139
282.00 0.00160
282.50 0.00182
283.00 0.00203
283.50 0.00233
284.00 0.00270
284.50 0.00308
285.00 0.00356
285.50 0.00405
286.00 0.00454
286.50 0.00531
287.00 0.00626
287.50 0.00722
288.00 0.00819
288.50 0.00917
289.00 0.01043
289.50 0.01229
290.00 0.01424
290.50 0.01634
291.00 0.01845
291.50 0.02139
292.00 0.02521
292.50 0.02903
293.00 0.03284
293.50 0.03681
294.00 0.04327
294.50 0.05029
295.00 0.05743
295.50 0.06456
296.00 0.07391
296.50 0.08654
297.00 0.09915
297.50 0.11175
298.00 0.12405
298.50 0.13999
299.00 0.15884
299.50 0.17761
300.00 0.19631
300.50 0.21492
301.00 0.23342
301.50 0.25252
302.00 0.27236
302.50 0.29210
303.00 0.31153
303.50 0.33004
304.00 0.34844
304.50 0.36674
305.00 0.38215
305.50 0.39739
306.00 0.41160
306.50 0.42492
307.00 0.43943
307.50 0.45739
308.00 0.47531
308.50 0.49319
309.00 0.50952
309.50 0.52462
310.00 0.54043
310.50 0.55805
311.00 0.57561
311.50 0.59333
312.00 0.61126
312.50 0.62937
313.00 0.64740
313.50 0.66540
314.00 0.68277
314.50 0.69960
315.00 0.71642
315.50 0.73271
316.00 0.74910
316.50 0.76446
317.00 0.77891
317.50 0.79419
318.00 0.80825
318.50 0.82210
319.00 0.83625
319.50 0.85061
320.00 0.86406
320.50 0.87756
321.00 0.88976
321.50 0.90230
322.00 0.91720
322.50 0.93215
323.00 0.94715
323.50 0.96058
324.00 0.97479
324.50 0.99076
325.00 1.00692
325.50 1.02323
326.00 1.03959
326.50 1.05601
327.00 1.07256
327.50 1.08937
328.00 1.10624
328.50 1.12235
329.00 1.13841
329.50 1.15450
330.00 1.17065
330.50 1.18698
331.00 1.20326
331.50 1.21815
332.00 1.23281
332.50 1.24727
333.00 1.26176
333.50 1.27628
334.00 1.28916
334.50 1.30136
335.00 1.31353
335.50 1.32314
336.00 1.33276
336.50 1.34239
337.00 1.34976
337.50 1.35461
338.00 1.35950
338.50 1.36430
339.00 1.36914
339.50 1.37401
340.00 1.37893
340.50 1.38143
341.00 1.38381
341.50 1.38608
342.00 1.38912
342.50 1.39250
343.00 1.39596
343.50 1.39949
344.00 1.40218
344.50 1.40480
345.00 1.40734
345.50 1.40913
346.00 1.41100
346.50 1.41295
347.00 1.41422
347.50 1.41546
348.00 1.41619
348.50 1.41558
349.00 1.41504
349.50 1.41458
350.00 1.41361
350.50 1.41194
351.00 1.40936
351.50 1.40694
352.00 1.40556
352.50 1.40427
353.00 1.40309
353.50 1.40179
354.00 1.39985
354.50 1.39801
355.00 1.39653
355.50 1.39550
356.00 1.39459
356.50 1.39360
357.00 1.39271
357.50 1.39194
358.00 1.39127
358.50 1.39089
359.00 1.39066
359.50 1.39055
360.00 1.39055
