phi[deg] B[T]
0.00 1.63565
0.50 1.63530
1.00 1.63508
1.50 1.63498
2.00 1.63501
2.50 1.63516
3.00 1.63547
3.50 1.63591
4.00 1.63647
4.50 1.63716
5.00 1.63822
5.50 1.63956
6.00 1.64101
6.50 1.64176
7.00 1.64263
7.50 1.64362
8.00 1.64527
8.50 1.64706
9.00 1.64896
9.50 1.64965
10.00 1.64924
10.50 1.64905
11.00 1.65057
11.50 1.65217
12.00 1.65243
12.50 1.65134
13.00 1.64934
13.50 1.64683
14.00 1.64441
14.50 1.64206
15.00 1.63978
15.50 1.63759
16.00 1.63540
16.50 1.63299
17.00 1.63095
17.50 1.62660
18.00 1.62203
18.50 1.61751
19.00 1.61306
19.50 1.60867
20.00 1.60434
20.50 1.60079
21.00 1.59889
21.50 1.59286
22.00 1.58445
22.50 1.57605
23.00 1.56739
23.50 1.55876
24.00 1.55016
24.50 1.53971
25.00 1.52719
25.50 1.51471
26.00 1.50175
26.50 1.48743
27.00 1.47317
27.50 1.45930
28.00 1.44548
28.50 1.43154
29.00 1.41725
29.50 1.40293
30.00 1.38682
30.50 1.37074
31.00 1.35469
31.50 1.33868
32.00 1.32308
32.50 1.30918
33.00 1.29530
33.50 1.27793
34.00 1.25954
34.50 1.24116
35.00 1.22280
35.50 1.20431
36.00 1.18573
36.50 1.16663
37.00 1.14754
37.50 1.12824
38.00 1.10751
38.50 1.08680
39.00 1.06605
39.50 1.04568
40.00 1.02560
40.50 1.00552
41.00 0.98541
41.50 0.96532
42.00 0.94576
42.50 0.92639
43.00 0.90700
43.50 0.88760
44.00 0.86825
44.50 0.84892
45.00 0.82953
45.50 0.81036
46.00 0.79130
46.50 0.77220
47.00 0.75287
47.50 0.73351
48.00 0.71351
48.50 0.69435
49.00 0.67515
49.50 0.65678
50.00 0.63884
50.50 0.61954
51.00 0.59891
51.50 0.57822
52.00 0.56010
52.50 0.54281
53.00 0.52545
53.50 0.50752
54.00 0.48909
54.50 0.47058
55.00 0.45201
55.50 0.43168
56.00 0.41121
56.50 0.39122
57.00 0.37136
57.50 0.35142
58.00 0.33140
58.50 0.31131
59.00 0.29226
59.50 0.27314
60.00 0.25332
60.50 0.23343
61.00 0.21349
61.50 0.19349
62.00 0.17905
62.50 0.16586
63.00 0.15264
63.50 0.13939
64.00 0.12597
64.50 0.11145
65.00 0.09692
65.50 0.08544
66.00 0.07810
66.50 0.07074
67.00 0.06436
67.50 0.05810
68.00 0.05184
68.50 0.04559
69.00 0.04003
69.50 0.03636
70.00 0.03268
70.50 0.02900
71.00 0.02593
71.50 0.02347
72.00 0.02103
72.50 0.01858
73.00 0.01667
73.50 0.01504
74.00 0.01342
74.50 0.01179
75.00 0.01077
75.50 0.00981
76.00 0.00885
76.50 0.00789
77.00 0.00693
77.50 0.00615
78.00 0.00537
78.50 0.00491
79.00 0.00450
79.50 0.00411
80.00 0.00372
80.50 0.00333
81.00 0.00295
81.50 0.00256
82.00 0.00231
82.50 0.00211
83.00 0.00191
83.50 0.00171
84.00 0.00155
84.50 0.00139
85.00 0.00124
85.50 0.00116
86.00 0.00108
86.50 0.00101
87.00 0.00093
87.50 0.00086
88.00 0.00082
88.50 0.00079
89.00 0.00076
89.50 0.00073
90.00 0.00070
90.00 0.00070
90.50 0.00073
91.00 0.00076
91.50 0.00079
92.00 0.00082
92.50 0.00086
93.00 0.00093
93.50 0.00101
94.00 0.00108
94.50 0.00116
95.00 0.00124
95.50 0.00139
96.00 0.00155
96.50 0.00171
97.00 0.00191
97.50 0.00211
98.00 0.00231
98.50 0.00256
99.00 0.00295
99.50 0.00333
100.00 0.00372
100.50 0.00411
101.00 0.00450
101.50 0.00491
102.00 0.00537
102.50 0.00615
103.00 0.00693
103.50 0.00789
104.00 0.00885
104.50 0.00981
105.00 0.01077
105.50 0.01179
106.00 0.01342
106.50 0.01504
107.00 0.01667
107.50 0.01858
108.00 0.02103
108.50 0.02347
109.00 0.02593
109.50 0.02900
110.00 0.03268
110.50 0.03636
111.00 0.04003
111.50 0.04559
112.00 0.05184
112.50 0.05810
113.00 0.06436
113.50 0.07074
114.00 0.07810
114.50 0.08544
115.00 0.09692
115.50 0.11145
116.00 0.12597
116.50 0.13939
117.00 0.15264
117.50 0.16586
118.00 0.17905
118.50 0.19349
119.00 0.21349
119.50 0.23343
120.00 0.25332
120.50 0.27314
121.00 0.29226
121.50 0.31131
122.00 0.33140
122.50 0.35142
123.00 0.37136
123.50 0.39122
124.00 0.41121
124.50 0.43168
125.00 0.45201
125.50 0.47058
126.00 0.48909
126.50 0.50752
127.00 0.52545
127.50 0.54281
128.00 0.56010
128.50 0.57822
129.00 0.59891
129.50 0.61954
130.00 0.63884
130.50 0.65678
131.00 0.67515
131.50 0.69435
132.00 0.71351
132.50 0.73351
133.00 0.75287
133.50 0.77220
134.00 0.79130
134.50 0.81036
135.00 0.82953
135.50 0.84892
136.00 0.86825
136.50 0.88760
137.00 0.90700
137.50 0.92639
138.00 0.94576
138.50 0.96532
139.00 0.98541
139.50 1.00552
140.00 1.02560
140.50 1.04568
141.00 1.06605
141.50 1.08680
142.00 1.10751
142.50 1.12824
143.00 1.14754
143.50 1.16663
144.00 1.18573
144.50 1.20431
145.00 1.22280
145.50 1.24116
146.00 1.25954
146.50 1.27793
147.00 1.29530
147.50 1.30918
148.00 1.32308
148.50 1.33868
149.00 1.35469
149.50 1.37074
150.00 1.38682
150.50 1.40293
151.00 1.41725
151.50 1.43154
152.00 1.44548
152.50 1.45930
153.00 1.47317
153.50 1.48743
154.00 1.50175
154.50 1.51471
155.00 1.52719
155.50 1.53971
156.00 1.55016
156.50 1.55876
157.00 1.56739
157.50 1.57605
158.00 1.58445
158.50 1.59286
159.00 1.59889
159.50 1.60079
160.00 1.60434
160.50 1.60867
161.00 1.61306
161.50 1.61751
162.00 1.62203
162.50 1.62660
163.00 1.63095
163.50 1.63299
164.00 1.63540
164.50 1.63759
165.00 1.63978
165.50 1.64206
166.00 1.64441
166.50 1.64683
167.00 1.64934
167.50 1.65134
168.00 1.65243
168.50 1.65217
169.00 1.65057
169.50 1.64905
170.00 1.64924
170.50 1.64965
171.00 1.64896
171.50 1.64706
172.00 1.64527
172.50 1.64362
173.00 1.64263
173.50 1.64176
174.00 1.64101
174.50 1.63956
175.00 1.63822
175.50 1.63716
176.00 1.63647
176.50 1.63591
177.00 1.63547
177.50 1.63516
178.00 1.63501
178.50 1.63498
179.00 1.63508
179.50 1.63530
180.00 1.63565
180.00 1.63565
180.50 1.63530
181.00 1.63508
181.50 1.63498
182.00 1.63501
182.50 1.63516
183.00 1.63547
183.50 1.63591
184.00 1.63647
184.50 1.63716
185.00 1.63822
185.50 1.63956
186.00 1.64101
186.50 1.64176
187.00 1.64263
187.50 1.64362
188.00 1.64527
188.50 1.64706
189.00 1.64896
189.50 1.64965
190.00 1.64924
190.50 1.64905
191.00 1.65057
191.50 1.65217
192.00 1.65243
192.50 1.65134
193.00 1.64934
193.50 1.64683
194.00 1.64441
194.50 1.64206
195.00 1.63978
195.50 1.63759
196.00 1.63540
196.50 1.63299
197.00 1.63095
197.50 1.62660
198.00 1.62203
198.50 1.61751
199.00 1.61306
199.50 1.60867
200.00 1.60434
200.50 1.60079
201.00 1.59889
201.50 1.59286
202.00 1.58445
202.50 1.57605
203.00 1.56739
203.50 1.55876
204.00 1.55016
204.50 1.53971
205.00 1.52719
205.50 1.51471
206.00 1.50175
206.50 1.48743
207.00 1.47317
207.50 1.45930
208.00 1.44548
208.50 1.43154
209.00 1.41725
209.50 1.40293
210.00 1.38682
210.50 1.37074
211.00 1.35469
211.50 1.33868
212.00 1.32308
212.50 1.30918
213.00 1.29530
213.50 1.27793
214.00 1.25954
214.50 1.24116
215.00 1.22280
215.50 1.20431
216.00 1.18573
216.50 1.16663
217.00 1.14754
217.50 1.12824
218.00 1.10751
218.50 1.08680
219.00 1.06605
219.50 1.04568
220.00 1.02560
220.50 1.00552
221.00 0.98541
221.50 0.96532
222.00 0.94576
222.50 0.92639
223.00 0.90700
223.50 0.88760
224.00 0.86825
224.50 0.84892
225.00 0.82953
225.50 0.81036
226.00 0.79130
226.50 0.77220
227.00 0.75287
227.50 0.73351
228.00 0.71351
228.50 0.69435
229.00 0.67515
229.50 0.65678
230.00 0.63884
230.50 0.61954
231.00 0.59891
231.50 0.57822
232.00 0.56010
232.50 0.54281
233.00 0.52545
233.50 0.50752
234.00 0.48909
234.50 0.47058
235.00 0.45201
235.50 0.43168
236.00 0.41121
236.50 0.39122
237.00 0.37136
237.50 0.35142
238.00 0.33140
238.50 0.31131
239.00 0.29226
239.50 0.27314
240.00 0.25332
240.50 0.23343
241.00 0.21349
241.50 0.19349
242.00 0.17905
242.50 0.16586
243.00 0.15264
243.50 0.13939
244.00 0.12597
244.50 0.11145
245.00 0.09692
245.50 0.08544
246.00 0.07810
246.50 0.07074
247.00 0.06436
247.50 0.05810
248.00 0.05184
248.50 0.04559
249.00 0.04003
249.50 0.03636
250.00 0.03268
250.50 0.02900
251.00 0.02593
251.50 0.02347
252.00 0.02103
252.50 0.01858
253.00 0.01667
253.50 0.01504
254.00 0.01342
254.50 0.01179
255.00 0.01077
255.50 0.00981
256.00 0.00885
256.50 0.00789
257.00 0.00693
257.50 0.00615
258.00 0.00537
258.50 0.00491
259.00 0.00450
259.50 0.00411
260.00 0.00372
260.50 0.00333
261.00 0.00295
261.50 0.00256
262.00 0.00231
262.50 0.00211
263.00 0.00191
263.50 0.00171
264.00 0.00155
264.50 0.00139
265.00 0.00124
265.50 0.00116
266.00 0.00108
266.50 0.00101
267.00 0.00093
267.50 0.00086
268.00 0.00082
268.50 0.00079
269.00 0.00076
269.50 0.00073
270.00 0.00070
270.00 0.00070
270.50 0.00073
271.00 0.00076
271.50 0.00079
272.00 0.00082
272.50 0.00086
273.00 0.00093
273.50 0.00101
274.00 0.00108
274.50 0.00116
275.00 0.00124
275.50 0.00139
276.00 0.00155
276.50 0.00171
277.00 0.00191
277.50 0.00211
278.00 0.00231
278.50 0.00256
279.00 0.00295
279.50 0.00333
280.00 0.00372
280.50 0.00411
281.00 0.00450
281.50 0.00491
282.00 0.00537
282.50 0.00615
283.00 0.00693
283.50 0.00789
284.00 0.00885
284.50 0.00981
285.00 0.01077
285.50 0.01179
286.00 0.01342
286.50 0.01504
287.00 0.01667
287.50 0.01858
288.00 0.02103
288.50 0.02347
289.00 0.02593
289.50 0.02900
290.00 0.03268
290.50 0.03636
291.00 0.04003
291.50 0.04559
292.00 0.05184
292.50 0.05810
293.00 0.06436
293.50 0.07074
294.00 0.07810
294.50 0.08544
295.00 0.09692
295.50 0.11145
296.00 0.12597
296.50 0.13939
297.00 0.15264
297.50 0.16586
298.00 0.17905
298.50 0.19349
299.00 0.21349
299.50 0.23343
300.00 0.25332
300.50 0.27314
301.00 0.29226
301.50 0.31131
302.00 0.33140
302.50 0.35142
303.00 0.37136
303.50 0.39122
304.00 0.41121
304.50 0.43168
305.00 0.45201
305.50 0.47058
306.00 0.48909
306.50 0.50752
307.00 0.52545
307.50 0.54281
308.00 0.56010
308.50 0.57822
309.00 0.59891
309.50 0.61954
310.00 0.63884
310.50 0.65678
311.00 0.67515
311.50 0.69435
312.00 0.71351
312.50 0.73351
313.00 0.75287
313.50 0.77220
314.00 0.79130
314.50 0.81036
315.00 0.82953
315.50 0.84892
316.00 0.86825
316.50 0.88760
317.00 0.90700
317.50 0.92639
318.00 0.94576
318.50 0.96532
319.00 0.98541
319.50 1.00552
320.00 1.02560
320.50 1.04568
321.00 1.06605
321.50 1.08680
322.00 1.10751
322.50 1.12824
323.00 1.14754
323.50 1.16663
324.00 1.18573
324.50 1.20431
325.00 1.22280
325.50 1.24116
326.00 1.25954
326.50 1.27793
327.00 1.29530
327.50 1.30918
328.00 1.32308
328.50 1.33868
329.00 1.35469
329.50 1.37074
330.00 1.38682
330.50 1.40293
331.00 1.41725
331.50 1.43154
332.00 1.44548
332.50 1.45930
333.00 1.47317
333.50 1.48743
334.00 1.50175
334.50 1.51471
335.00 1.52719
335.50 1.53971
336.00 1.55016
336.50 1.55876
337.00 1.56739
337.50 1.57605
338.00 1.58445
338.50 1.59286
339.00 1.59889
339.50 1.60079
340.00 1.60434
340.50 1.60867
341.00 1.61306
341.50 1.61751
342.00 1.62203
342.50 1.62660
343.00 1.63095
343.50 1.63299
344.00 1.63540
344.50 1.63759
345.00 1.63978
345.50 1.64206
346.00 1.64441
346.50 1.64683
347.00 1.64934
347.50 1.65134
348.00 1.65243
348.50 1.65217
349.00 1.65057
349.50 1.64905
350.00 1.64924
350.50 1.64965
351.00 1.64896
351.50 1.64706
352.00 1.64527
352.50 1.64362
353.00 1.64263
353.50 1.64176
354.00 1.64101
354.50 1.63956
355.00 1.63822
355.50 1.63716
356.00 1.63647
356.50 1.63591
357.00 1.63547
357.50 1.63516
358.00 1.63501
358.50 1.63498
359.00 1.63508
359.50 1.63530
360.00 1.63565
