phi[deg] B[T]
0.00 1.53565
0.50 1.53499
1.00 1.53445
1.50 1.53402
2.00 1.53361
2.50 1.53313
3.00 1.53277
3.50 1.53253
4.00 1.53243
4.50 1.53256
5.00 1.53280
5.50 1.53339
6.00 1.53421
6.50 1.53515
7.00 1.53591
7.50 1.53671
8.00 1.53763
8.50 1.53867
9.00 1.54111
9.50 1.54355
10.00 1.54532
10.50 1.54621
11.00 1.54658
11.50 1.54704
12.00 1.54758
12.50 1.54668
13.00 1.54537
13.50 1.54404
14.00 1.54221
14.50 1.54047
15.00 1.53882
15.50 1.53684
16.00 1.53478
16.50 1.53278
17.00 1.52972
17.50 1.52675
18.00 1.52387
18.50 1.52163
19.00 1.52063
19.50 1.51925
20.00 1.51774
20.50 1.51308
21.00 1.50824
21.50 1.50344
22.00 1.49844
22.50 1.49237
23.00 1.48635
23.50 1.47798
24.00 1.46713
24.50 1.45631
25.00 1.44430
25.50 1.42934
26.00 1.41442
26.50 1.39927
27.00 1.38383
27.50 1.36844
28.00 1.35308
28.50 1.33740
29.00 1.32131
29.50 1.30640
30.00 1.29114
30.50 1.27498
31.00 1.25886
31.50 1.24280
32.00 1.22679
32.50 1.21260
33.00 1.19848
33.50 1.18193
34.00 1.16374
34.50 1.14558
35.00 1.12744
35.50 1.11008
36.00 1.09327
36.50 1.07372
37.00 1.05272
37.50 1.03200
38.00 1.01216
38.50 0.99232
39.00 0.97193
39.50 0.95159
40.00 0.93129
40.50 0.91112
41.00 0.89160
41.50 0.87239
42.00 0.85324
42.50 0.83423
43.00 0.81610
43.50 0.79806
44.00 0.78056
44.50 0.76345
45.00 0.74640
45.50 0.73057
46.00 0.71476
46.50 0.70001
47.00 0.68637
47.50 0.67195
48.00 0.65953
48.50 0.64783
49.00 0.63553
49.50 0.62287
50.00 0.61094
50.50 0.60032
51.00 0.59308
51.50 0.58174
52.00 0.56804
52.50 0.55426
53.00 0.54040
53.50 0.52728
54.00 0.51763
54.50 0.50360
55.00 0.48481
55.50 0.46584
56.00 0.44670
56.50 0.42740
57.00 0.40919
57.50 0.39246
58.00 0.36352
58.50 0.33835
59.00 0.31545
59.50 0.29242
60.00 0.26824
60.50 0.24232
61.00 0.21628
61.50 0.19044
62.00 0.17117
62.50 0.15409
63.00 0.13674
63.50 0.11889
64.00 0.10103
64.50 0.08899
65.00 0.07913
65.50 0.06926
66.00 0.05957
66.50 0.05076
67.00 0.04527
67.50 0.03997
68.00 0.03467
68.50 0.02936
69.00 0.02522
69.50 0.02202
70.00 0.01933
70.50 0.01689
71.00 0.01446
71.50 0.01258
72.00 0.01113
72.50 0.00969
73.00 0.00835
73.50 0.00715
74.00 0.00613
74.50 0.00550
75.00 0.00486
75.50 0.00423
76.00 0.00360
76.50 0.00310
77.00 0.00276
77.50 0.00243
78.00 0.00210
78.50 0.00179
79.00 0.00161
79.50 0.00144
80.00 0.00126
80.50 0.00109
81.00 0.00095
81.50 0.00085
82.00 0.00076
82.50 0.00065
83.00 0.00058
83.50 0.00052
84.00 0.00046
84.50 0.00040
85.00 0.00035
85.50 0.00032
86.00 0.00028
86.50 0.00025
87.00 0.00022
87.50 0.00020
88.00 0.00018
88.50 0.00016
89.00 0.00015
89.50 0.00014
90.00 0.00013
90.00 0.00013
90.50 0.00014
91.00 0.00015
91.50 0.00016
92.00 0.00018
92.50 0.00020
93.00 0.00022
93.50 0.00025
94.00 0.00028
94.50 0.00032
95.00 0.00035
95.50 0.00040
96.00 0.00046
96.50 0.00052
97.00 0.00058
97.50 0.00065
98.00 0.00076
98.50 0.00085
99.00 0.00095
99.50 0.00109
100.00 0.00126
100.50 0.00144
101.00 0.00161
101.50 0.00179
102.00 0.00210
102.50 0.00243
103.00 0.00276
103.50 0.00310
104.00 0.00360
104.50 0.00423
105.00 0.00486
105.50 0.00550
106.00 0.00613
106.50 0.00715
107.00 0.00835
107.50 0.00969
108.00 0.01113
108.50 0.01258
109.00 0.01446
109.50 0.01689
110.00 0.01933
110.50 0.02202
111.00 0.02522
111.50 0.02936
112.00 0.03467
112.50 0.03997
113.00 0.04527
113.50 0.05076
114.00 0.05957
114.50 0.06926
115.00 0.07913
115.50 0.08899
116.00 0.10103
116.50 0.11889
117.00 0.13674
117.50 0.15409
118.00 0.17117
118.50 0.19044
119.00 0.21628
119.50 0.24232
120.00 0.26824
120.50 0.29242
121.00 0.31545
121.50 0.33835
122.00 0.36352
122.50 0.39246
123.00 0.40919
123.50 0.42740
124.00 0.44670
124.50 0.46584
125.00 0.48481
125.50 0.50360
126.00 0.51763
126.50 0.52728
127.00 0.54040
127.50 0.55426
128.00 0.56804
128.50 0.58174
129.00 0.59308
129.50 0.60032
130.00 0.61094
130.50 0.62287
131.00 0.63553
131.50 0.64783
132.00 0.65953
132.50 0.67195
133.00 0.68637
133.50 0.70001
134.00 0.71476
134.50 0.73057
135.00 0.74640
135.50 0.76345
136.00 0.78056
136.50 0.79806
137.00 0.81610
137.50 0.83423
138.00 0.85324
138.50 0.87239
139.00 0.89160
139.50 0.91112
140.00 0.93129
140.50 0.95159
141.00 0.97193
141.50 0.99232
142.00 1.01216
142.50 1.03200
143.00 1.05272
143.50 1.07372
144.00 1.09327
144.50 1.11008
145.00 1.12744
145.50 1.14558
146.00 1.16374
146.50 1.18193
147.00 1.19848
147.50 1.21260
148.00 1.22679
148.50 1.24280
149.00 1.25886
149.50 1.27498
150.00 1.29114
150.50 1.30640
151.00 1.32131
151.50 1.33740
152.00 1.35308
152.50 1.36844
153.00 1.38383
153.50 1.39927
154.00 1.41442
154.50 1.42934
155.00 1.44430
155.50 1.45631
156.00 1.46713
156.50 1.47798
157.00 1.48635
157.50 1.49237
158.00 1.49844
158.50 1.50344
159.00 1.50824
159.50 1.51308
160.00 1.51774
160.50 1.51925
161.00 1.52063
161.50 1.52163
162.00 1.52387
162.50 1.52675
163.00 1.52972
163.50 1.53278
164.00 1.53478
164.50 1.53684
165.00 1.53882
165.50 1.54047
166.00 1.54221
166.50 1.54404
167.00 1.54537
167.50 1.54668
168.00 1.54758
168.50 1.54704
169.00 1.54658
169.50 1.54621
170.00 1.54532
170.50 1.54355
171.00 1.54111
171.50 1.53867
172.00 1.53763
172.50 1.53671
173.00 1.53591
173.50 1.53515
174.00 1.53421
174.50 1.53339
175.00 1.53280
175.50 1.53256
176.00 1.53243
176.50 1.53253
177.00 1.53277
177.50 1.53313
178.00 1.53361
178.50 1.53402
179.00 1.53445
179.50 1.53499
180.00 1.53565
180.00 1.53565
180.50 1.53499
181.00 1.53445
181.50 1.53402
182.00 1.53361
182.50 1.53313
183.00 1.53277
183.50 1.53253
184.00 1.53243
184.50 1.53256
185.00 1.53280
185.50 1.53339
186.00 1.53421
186.50 1.53515
187.00 1.53591
187.50 1.53671
188.00 1.53763
188.50 1.53867
189.00 1.54111
189.50 1.54355
190.00 1.54532
190.50 1.54621
191.00 1.54658
191.50 1.54704
192.00 1.54758
192.50 1.54668
193.00 1.54537
193.50 1.54404
194.00 1.54221
194.50 1.54047
195.00 1.53882
195.50 1.53684
196.00 1.53478
196.50 1.53278
197.00 1.52972
197.50 1.52675
198.00 1.52387
198.50 1.52163
199.00 1.52063
199.50 1.51925
200.00 1.51774
200.50 1.51308
201.00 1.50824
201.50 1.50344
202.00 1.49844
202.50 1.49237
203.00 1.48635
203.50 1.47798
204.00 1.46713
204.50 1.45631
205.00 1.44430
205.50 1.42934
206.00 1.41442
206.50 1.39927
207.00 1.38383
207.50 1.36844
208.00 1.35308
208.50 1.33740
209.00 1.32131
209.50 1.30640
210.00 1.29114
210.50 1.27498
211.00 1.25886
211.50 1.24280
212.00 1.22679
212.50 1.21260
213.00 1.19848
213.50 1.18193
214.00 1.16374
214.50 1.14558
215.00 1.12744
215.50 1.11008
216.00 1.09327
216.50 1.07372
217.00 1.05272
217.50 1.03200
218.00 1.01216
218.50 0.99232
219.00 0.97193
219.50 0.95159
220.00 0.93129
220.50 0.91112
221.00 0.89160
221.50 0.87239
222.00 0.85324
222.50 0.83423
223.00 0.81610
223.50 0.79806
224.00 0.78056
224.50 0.76345
225.00 0.74640
225.50 0.73057
226.00 0.71476
226.50 0.70001
227.00 0.68637
227.50 0.67195
228.00 0.65953
228.50 0.64783
229.00 0.63553
229.50 0.62287
230.00 0.61094
230.50 0.60032
231.00 0.59308
231.50 0.58174
232.00 0.56804
232.50 0.55426
233.00 0.54040
233.50 0.52728
234.00 0.51763
234.50 0.50360
235.00 0.48481
235.50 0.46584
236.00 0.44670
236.50 0.42740
237.00 0.40919
237.50 0.39246
238.00 0.36352
238.50 0.33835
239.00 0.31545
239.50 0.29242
240.00 0.26824
240.50 0.24232
241.00 0.21628
241.50 0.19044
242.00 0.17117
242.50 0.15409
243.00 0.13674
243.50 0.11889
244.00 0.10103
244.50 0.08899
245.00 0.07913
245.50 0.06926
246.00 0.05957
246.50 0.05076
247.00 0.04527
247.50 0.03997
248.00 0.03467
248.50 0.02936
249.00 0.02522
249.50 0.02202
250.00 0.01933
250.50 0.01689
251.00 0.01446
251.50 0.01258
252.00 0.01113
252.50 0.00969
253.00 0.00835
253.50 0.00715
254.00 0.00613
254.50 0.00550
255.00 0.00486
255.50 0.00423
256.00 0.00360
256.50 0.00310
257.00 0.00276
257.50 0.00243
258.00 0.00210
258.50 0.00179
259.00 0.00161
259.50 0.00144
260.00 0.00126
260.50 0.00109
261.00 0.00095
261.50 0.00085
262.00 0.00076
262.50 0.00065
263.00 0.00058
263.50 0.00052
264.00 0.00046
264.50 0.00040
265.00 0.00035
265.50 0.00032
266.00 0.00028
266.50 0.00025
267.00 0.00022
267.50 0.00020
268.00 0.00018
268.50 0.00016
269.00 0.00015
269.50 0.00014
270.00 0.00013
270.00 0.00013
270.50 0.00014
271.00 0.00015
271.50 0.00016
272.00 0.00018
272.50 0.00020
273.00 0.00022
273.50 0.00025
274.00 0.00028
274.50 0.00032
275.00 0.00035
275.50 0.00040
276.00 0.00046
276.50 0.00052
277.00 0.00058
277.50 0.00065
278.00 0.00076
278.50 0.00085
279.00 0.00095
279.50 0.00109
280.00 0.00126
280.50 0.00144
281.00 0.00161
281.50 0.00179
282.00 0.00210
282.50 0.00243
283.00 0.00276
283.50 0.00310
284.00 0.00360
284.50 0.00423
285.00 0.00486
285.50 0.00550
286.00 0.00613
286.50 0.00715
287.00 0.00835
287.50 0.00969
288.00 0.01113
288.50 0.01258
289.00 0.01446
289.50 0.01689
290.00 0.01933
290.50 0.02202
291.00 0.02522
291.50 0.02936
292.00 0.03467
292.50 0.03997
293.00 0.04527
293.50 0.05076
294.00 0.05957
294.50 0.06926
295.00 0.07913
295.50 0.08899
296.00 0.10103
296.50 0.11889
297.00 0.13674
297.50 0.15409
298.00 0.17117
298.50 0.19044
299.00 0.21628
299.50 0.24232
300.00 0.26824
300.50 0.29242
301.00 0.31545
301.50 0.33835
302.00 0.36352
302.50 0.39246
303.00 0.40919
303.50 0.42740
304.00 0.44670
304.50 0.46584
305.00 0.48481
305.50 0.50360
306.00 0.51763
306.50 0.52728
307.00 0.54040
307.50 0.55426
308.00 0.56804
308.50 0.58174
309.00 0.59308
309.50 0.60032
310.00 0.61094
310.50 0.62287
311.00 0.63553
311.50 0.64783
312.00 0.65953
312.50 0.67195
313.00 0.68637
313.50 0.70001
314.00 0.71476
314.50 0.73057
315.00 0.74640
315.50 0.76345
316.00 0.78056
316.50 0.79806
317.00 0.81610
317.50 0.83423
318.00 0.85324
318.50 0.87239
319.00 0.89160
319.50 0.91112
320.00 0.93129
320.50 0.95159
321.00 0.97193
321.50 0.99232
322.00 1.01216
322.50 1.03200
323.00 1.05272
323.50 1.07372
324.00 1.09327
324.50 1.11008
325.00 1.12744
325.50 1.14558
326.00 1.16374
326.50 1.18193
327.00 1.19848
327.50 1.21260
328.00 1.22679
328.50 1.24280
329.00 1.25886
329.50 1.27498
330.00 1.29114
330.50 1.30640
331.00 1.32131
331.50 1.33740
332.00 1.35308
332.50 1.36844
333.00 1.38383
333.50 1.39927
334.00 1.41442
334.50 1.42934
335.00 1.44430
335.50 1.45631
336.00 1.46713
336.50 1.47798
337.00 1.48635
337.50 1.49237
338.00 1.49844
338.50 1.50344
339.00 1.50824
339.50 1.51308
340.00 1.51774
340.50 1.51925
341.00 1.52063
341.50 1.52163
342.00 1.52387
342.50 1.52675
343.00 1.52972
343.50 1.53278
344.00 1.53478
344.50 1.53684
345.00 1.53882
345.50 1.54047
346.00 1.54221
346.50 1.54404
347.00 1.54537
347.50 1.54668
348.00 1.54758
348.50 1.54704
349.00 1.54658
349.50 1.54621
350.00 1.54532
350.50 1.54355
351.00 1.54111
351.50 1.53867
352.00 1.53763
352.50 1.53671
353.00 1.53591
353.50 1.53515
354.00 1.53421
354.50 1.53339
355.00 1.53280
355.50 1.53256
356.00 1.53243
356.50 1.53253
357.00 1.53277
357.50 1.53313
358.00 1.53361
358.50 1.53402
359.00 1.53445
359.50 1.53499
360.00 1.53565
