phi[deg] B[T]
0.00 1.42290
0.50 1.42214
1.00 1.42147
1.50 1.42094
2.00 1.42005
2.50 1.41940
3.00 1.41887
3.50 1.41777
4.00 1.41682
4.50 1.41664
5.00 1.41657
5.50 1.41673
6.00 1.41702
6.50 1.41745
7.00 1.41807
7.50 1.41884
8.00 1.42053
8.50 1.42233
9.00 1.42412
9.50 1.42513
10.00 1.42624
10.50 1.42782
11.00 1.42961
11.50 1.43150
12.00 1.43209
12.50 1.43250
13.00 1.43253
13.50 1.43206
14.00 1.43168
14.50 1.43124
15.00 1.43070
15.50 1.43027
16.00 1.42987
16.50 1.42951
17.00 1.42964
17.50 1.43018
18.00 1.43013
18.50 1.42962
19.00 1.42920
19.50 1.42969
20.00 1.43080
20.50 1.43199
21.00 1.43077
21.50 1.42825
22.00 1.42592
22.50 1.42403
23.00 1.42220
23.50 1.41860
24.00 1.41167
24.50 1.40476
25.00 1.39522
25.50 1.38468
26.00 1.37419
26.50 1.36294
27.00 1.35167
27.50 1.34004
28.00 1.32752
28.50 1.31505
29.00 1.30211
29.50 1.28867
30.00 1.27529
30.50 1.26325
31.00 1.25157
31.50 1.23982
32.00 1.22441
32.50 1.20904
33.00 1.19370
33.50 1.18082
34.00 1.16855
34.50 1.15298
35.00 1.13453
35.50 1.11542
36.00 1.09628
36.50 1.07688
37.00 1.05434
37.50 1.03180
38.00 1.00776
38.50 0.98354
39.00 0.95930
39.50 0.93511
40.00 0.91079
40.50 0.88519
41.00 0.85999
41.50 0.83484
42.00 0.80987
42.50 0.78505
43.00 0.76021
43.50 0.73563
44.00 0.71124
44.50 0.68712
45.00 0.66289
45.50 0.63951
46.00 0.61689
46.50 0.59585
47.00 0.57495
47.50 0.55701
48.00 0.53957
48.50 0.52389
49.00 0.51030
49.50 0.49699
50.00 0.48903
50.50 0.48167
51.00 0.47080
51.50 0.45994
52.00 0.44909
52.50 0.44232
53.00 0.43828
53.50 0.43226
54.00 0.42064
54.50 0.40771
55.00 0.39466
55.50 0.38151
56.00 0.36873
56.50 0.35584
57.00 0.33959
57.50 0.32102
58.00 0.30108
58.50 0.27740
59.00 0.25358
59.50 0.22963
60.00 0.20935
60.50 0.19016
61.00 0.17023
61.50 0.15014
62.00 0.12999
62.50 0.11085
63.00 0.09910
63.50 0.08731
64.00 0.07408
64.50 0.06083
65.00 0.05323
65.50 0.04704
66.00 0.04083
66.50 0.03463
67.00 0.02833
67.50 0.02492
68.00 0.02247
68.50 0.02002
69.00 0.01758
69.50 0.01514
70.00 0.01271
70.50 0.01027
71.00 0.00860
71.50 0.00774
72.00 0.00688
72.50 0.00602
73.00 0.00515
73.50 0.00443
74.00 0.00399
74.50 0.00356
75.00 0.00317
75.50 0.00286
76.00 0.00262
76.50 0.00237
77.00 0.00213
77.50 0.00198
78.00 0.00185
78.50 0.00171
79.00 0.00157
79.50 0.00147
80.00 0.00138
80.50 0.00129
81.00 0.00122
81.50 0.00115
82.00 0.00109
82.50 0.00102
83.00 0.00097
83.50 0.00092
84.00 0.00088
84.50 0.00083
85.00 0.00078
85.50 0.00075
86.00 0.00072
86.50 0.00068
87.00 0.00065
87.50 0.00063
88.00 0.00061
88.50 0.00059
89.00 0.00058
89.50 0.00057
90.00 0.00057
90.00 0.00057
90.50 0.00057
91.00 0.00058
91.50 0.00059
92.00 0.00061
92.50 0.00063
93.00 0.00065
93.50 0.00068
94.00 0.00072
94.50 0.00075
95.00 0.00078
95.50 0.00083
96.00 0.00088
96.50 0.00092
97.00 0.00097
97.50 0.00102
98.00 0.00109
98.50 0.00115
99.00 0.00122
99.50 0.00129
100.00 0.00138
100.50 0.00147
101.00 0.00157
101.50 0.00171
102.00 0.00185
102.50 0.00198
103.00 0.00213
103.50 0.00237
104.00 0.00262
104.50 0.00286
105.00 0.00317
105.50 0.00356
106.00 0.00399
106.50 0.00443
107.00 0.00515
107.50 0.00602
108.00 0.00688
108.50 0.00774
109.00 0.00860
109.50 0.01027
110.00 0.01271
110.50 0.01514
111.00 0.01758
111.50 0.02002
112.00 0.02247
112.50 0.02492
113.00 0.02833
113.50 0.03463
114.00 0.04083
114.50 0.04704
115.00 0.05323
115.50 0.06083
116.00 0.07408
116.50 0.08731
117.00 0.09910
117.50 0.11085
118.00 0.12999
118.50 0.15014
119.00 0.17023
119.50 0.19016
120.00 0.20935
120.50 0.22963
121.00 0.25358
121.50 0.27740
122.00 0.30108
122.50 0.32102
123.00 0.33959
123.50 0.35584
124.00 0.36873
124.50 0.38151
125.00 0.39466
125.50 0.40771
126.00 0.42064
126.50 0.43226
127.00 0.43828
127.50 0.44232
128.00 0.44909
128.50 0.45994
129.00 0.47080
129.50 0.48167
130.00 0.48903
130.50 0.49699
131.00 0.51030
131.50 0.52389
132.00 0.53957
132.50 0.55701
133.00 0.57495
133.50 0.59585
134.00 0.61689
134.50 0.63951
135.00 0.66289
135.50 0.68712
136.00 0.71124
136.50 0.73563
137.00 0.76021
137.50 0.78505
138.00 0.80987
138.50 0.83484
139.00 0.85999
139.50 0.88519
140.00 0.91079
140.50 0.93511
141.00 0.95930
141.50 0.98354
142.00 1.00776
142.50 1.03180
143.00 1.05434
143.50 1.07688
144.00 1.09628
144.50 1.11542
145.00 1.13453
145.50 1.15298
146.00 1.16855
146.50 1.18082
147.00 1.19370
147.50 1.20904
148.00 1.22441
148.50 1.23982
149.00 1.25157
149.50 1.26325
150.00 1.27529
150.50 1.28867
151.00 1.30211
151.50 1.31505
152.00 1.32752
152.50 1.34004
153.00 1.35167
153.50 1.36294
154.00 1.37419
154.50 1.38468
155.00 1.39522
155.50 1.40476
156.00 1.41167
156.50 1.41860
157.00 1.42220
157.50 1.42403
158.00 1.42592
158.50 1.42825
159.00 1.43077
159.50 1.43199
160.00 1.43080
160.50 1.42969
161.00 1.42920
161.50 1.42962
162.00 1.43013
162.50 1.43018
163.00 1.42964
163.50 1.42951
164.00 1.42987
164.50 1.43027
165.00 1.43070
165.50 1.43124
166.00 1.43168
166.50 1.43206
167.00 1.43253
167.50 1.43250
168.00 1.43209
168.50 1.43150
169.00 1.42961
169.50 1.42782
170.00 1.42624
170.50 1.42513
171.00 1.42412
171.50 1.42233
172.00 1.42053
172.50 1.41884
173.00 1.41807
173.50 1.41745
174.00 1.41702
174.50 1.41673
175.00 1.41657
175.50 1.41664
176.00 1.41682
176.50 1.41777
177.00 1.41887
177.50 1.41940
178.00 1.42005
178.50 1.42094
179.00 1.42147
179.50 1.42214
180.00 1.42290
180.00 1.42290
180.50 1.42214
181.00 1.42147
181.50 1.42094
182.00 1.42005
182.50 1.41940
183.00 1.41887
183.50 1.41777
184.00 1.41682
184.50 1.41664
185.00 1.41657
185.50 1.41673
186.00 1.41702
186.50 1.41745
187.00 1.41807
187.50 1.41884
188.00 1.42053
188.50 1.42233
189.00 1.42412
189.50 1.42513
190.00 1.42624
190.50 1.42782
191.00 1.42961
191.50 1.43150
192.00 1.43209
192.50 1.43250
193.00 1.43253
193.50 1.43206
194.00 1.43168
194.50 1.43124
195.00 1.43070
195.50 1.43027
196.00 1.42987
196.50 1.42951
197.00 1.42964
197.50 1.43018
198.00 1.43013
198.50 1.42962
199.00 1.42920
199.50 1.42969
200.00 1.43080
200.50 1.43199
201.00 1.43077
201.50 1.42825
202.00 1.42592
202.50 1.42403
203.00 1.42220
203.50 1.41860
204.00 1.41167
204.50 1.40476
205.00 1.39522
205.50 1.38468
206.00 1.37419
206.50 1.36294
207.00 1.35167
207.50 1.34004
208.00 1.32752
208.50 1.31505
209.00 1.30211
209.50 1.28867
210.00 1.27529
210.50 1.26325
211.00 1.25157
211.50 1.23982
212.00 1.22441
212.50 1.20904
213.00 1.19370
213.50 1.18082
214.00 1.16855
214.50 1.15298
215.00 1.13453
215.50 1.11542
216.00 1.09628
216.50 1.07688
217.00 1.05434
217.50 1.03180
218.00 1.00776
218.50 0.98354
219.00 0.95930
219.50 0.93511
220.00 0.91079
220.50 0.88519
221.00 0.85999
221.50 0.83484
222.00 0.80987
222.50 0.78505
223.00 0.76021
223.50 0.73563
224.00 0.71124
224.50 0.68712
225.00 0.66289
225.50 0.63951
226.00 0.61689
226.50 0.59585
227.00 0.57495
227.50 0.55701
228.00 0.53957
228.50 0.52389
229.00 0.51030
229.50 0.49699
230.00 0.48903
230.50 0.48167
231.00 0.47080
231.50 0.45994
232.00 0.44909
232.50 0.44232
233.00 0.43828
233.50 0.43226
234.00 0.42064
234.50 0.40771
235.00 0.39466
235.50 0.38151
236.00 0.36873
236.50 0.35584
237.00 0.33959
237.50 0.32102
238.00 0.30108
238.50 0.27740
239.00 0.25358
239.50 0.22963
240.00 0.20935
240.50 0.19016
241.00 0.17023
241.50 0.15014
242.00 0.12999
242.50 0.11085
243.00 0.09910
243.50 0.08731
244.00 0.07408
244.50 0.06083
245.00 0.05323
245.50 0.04704
246.00 0.04083
246.50 0.03463
247.00 0.02833
247.50 0.02492
248.00 0.02247
248.50 0.02002
249.00 0.01758
249.50 0.01514
250.00 0.01271
250.50 0.01027
251.00 0.00860
251.50 0.00774
252.00 0.00688
252.50 0.00602
253.00 0.00515
253.50 0.00443
254.00 0.00399
254.50 0.00356
255.00 0.00317
255.50 0.00286
256.00 0.00262
256.50 0.00237
257.00 0.00213
257.50 0.00198
258.00 0.00185
258.50 0.00171
259.00 0.00157
259.50 0.00147
260.00 0.00138
260.50 0.00129
261.00 0.00122
261.50 0.00115
262.00 0.00109
262.50 0.00102
263.00 0.00097
263.50 0.00092
264.00 0.00088
264.50 0.00083
265.00 0.00078
265.50 0.00075
266.00 0.00072
266.50 0.00068
267.00 0.00065
267.50 0.00063
268.00 0.00061
268.50 0.00059
269.00 0.00058
269.50 0.00057
270.00 0.00057
270.00 0.00057
270.50 0.00057
271.00 0.00058
271.50 0.00059
272.00 0.00061
272.50 0.00063
273.00 0.00065
273.50 0.00068
274.00 0.00072
274.50 0.00075
275.00 0.00078
275.50 0.00083
276.00 0.00088
276.50 0.00092
277.00 0.00097
277.50 0.00102
278.00 0.00109
278.50 0.00115
279.00 0.00122
279.50 0.00129
280.00 0.00138
280.50 0.00147
281.00 0.00157
281.50 0.00171
282.00 0.00185
282.50 0.00198
283.00 0.00213
283.50 0.00237
284.00 0.00262
284.50 0.00286
285.00 0.00317
285.50 0.00356
286.00 0.00399
286.50 0.00443
287.00 0.00515
287.50 0.00602
288.00 0.00688
288.50 0.00774
289.00 0.00860
289.50 0.01027
290.00 0.01271
290.50 0.01514
291.00 0.01758
291.50 0.02002
292.00 0.02247
292.50 0.02492
293.00 0.02833
293.50 0.03463
294.00 0.04083
294.50 0.04704
295.00 0.05323
295.50 0.06083
296.00 0.07408
296.50 0.08731
297.00 0.09910
297.50 0.11085
298.00 0.12999
298.50 0.15014
299.00 0.17023
299.50 0.19016
300.00 0.20935
300.50 0.22963
301.00 0.25358
301.50 0.27740
302.00 0.30108
302.50 0.32102
303.00 0.33959
303.50 0.35584
304.00 0.36873
304.50 0.38151
305.00 0.39466
305.50 0.40771
306.00 0.42064
306.50 0.43226
307.00 0.43828
307.50 0.44232
308.00 0.44909
308.50 0.45994
309.00 0.47080
309.50 0.48167
310.00 0.48903
310.50 0.49699
311.00 0.51030
311.50 0.52389
312.00 0.53957
312.50 0.55701
313.00 0.57495
313.50 0.59585
314.00 0.61689
314.50 0.63951
315.00 0.66289
315.50 0.68712
316.00 0.71124
316.50 0.73563
317.00 0.76021
317.50 0.78505
318.00 0.80987
318.50 0.83484
319.00 0.85999
319.50 0.88519
320.00 0.91079
320.50 0.93511
321.00 0.95930
321.50 0.98354
322.00 1.00776
322.50 1.03180
323.00 1.05434
323.50 1.07688
324.00 1.09628
324.50 1.11542
325.00 1.13453
325.50 1.15298
326.00 1.16855
326.50 1.18082
327.00 1.19370
327.50 1.20904
328.00 1.22441
328.50 1.23982
329.00 1.25157
329.50 1.26325
330.00 1.27529
330.50 1.28867
331.00 1.30211
331.50 1.31505
332.00 1.32752
332.50 1.34004
333.00 1.35167
333.50 1.36294
334.00 1.37419
334.50 1.38468
335.00 1.39522
335.50 1.40476
336.00 1.41167
336.50 1.41860
337.00 1.42220
337.50 1.42403
338.00 1.42592
338.50 1.42825
339.00 1.43077
339.50 1.43199
340.00 1.43080
340.50 1.42969
341.00 1.42920
341.50 1.42962
342.00 1.43013
342.50 1.43018
343.00 1.42964
343.50 1.42951
344.00 1.42987
344.50 1.43027
345.00 1.43070
345.50 1.43124
346.00 1.43168
346.50 1.43206
347.00 1.43253
347.50 1.43250
348.00 1.43209
348.50 1.43150
349.00 1.42961
349.50 1.42782
350.00 1.42624
350.50 1.42513
351.00 1.42412
351.50 1.42233
352.00 1.42053
352.50 1.41884
353.00 1.41807
353.50 1.41745
354.00 1.41702
354.50 1.41673
355.00 1.41657
355.50 1.41664
356.00 1.41682
356.50 1.41777
357.00 1.41887
357.50 1.41940
358.00 1.42005
358.50 1.42094
359.00 1.42147
359.50 1.42214
360.00 1.42290
