phi[deg] B[T]
0.00 1.68580
0.50 1.68566
1.00 1.68566
1.50 1.68580
2.00 1.68608
2.50 1.68666
3.00 1.68737
3.50 1.68822
4.00 1.68921
4.50 1.69013
5.00 1.69116
5.50 1.69252
6.00 1.69450
6.50 1.69661
7.00 1.69823
7.50 1.69947
8.00 1.70084
8.50 1.70234
9.00 1.70431
9.50 1.70755
10.00 1.70990
10.50 1.71148
11.00 1.71181
11.50 1.71223
12.00 1.71275
12.50 1.71335
13.00 1.71278
13.50 1.71174
14.00 1.71034
14.50 1.70791
15.00 1.70557
15.50 1.70333
16.00 1.70118
16.50 1.69924
17.00 1.69738
17.50 1.69559
18.00 1.69217
18.50 1.68828
19.00 1.68446
19.50 1.68071
20.00 1.67747
20.50 1.67537
21.00 1.67334
21.50 1.66570
22.00 1.65681
22.50 1.64795
23.00 1.63913
23.50 1.63122
24.00 1.62586
24.50 1.61269
25.00 1.59696
25.50 1.58223
26.00 1.56751
26.50 1.55282
27.00 1.53816
27.50 1.52138
28.00 1.50288
28.50 1.48437
29.00 1.46567
29.50 1.44702
30.00 1.42841
30.50 1.40987
31.00 1.39141
31.50 1.37320
32.00 1.35531
32.50 1.33633
33.00 1.31716
33.50 1.29804
34.00 1.27898
34.50 1.25996
35.00 1.24131
35.50 1.22407
36.00 1.20583
36.50 1.18707
37.00 1.16768
37.50 1.14791
38.00 1.12819
38.50 1.10961
39.00 1.09107
39.50 1.07095
40.00 1.05071
40.50 1.03102
41.00 1.01117
41.50 0.99067
42.00 0.96993
42.50 0.94938
43.00 0.92870
43.50 0.90803
44.00 0.88692
44.50 0.86527
45.00 0.84398
45.50 0.82266
46.00 0.80147
46.50 0.78047
47.00 0.75963
47.50 0.73911
48.00 0.71961
48.50 0.70023
49.00 0.68253
49.50 0.66483
50.00 0.64545
50.50 0.62928
51.00 0.61426
51.50 0.59859
52.00 0.58209
52.50 0.56556
53.00 0.54899
53.50 0.53053
54.00 0.51386
54.50 0.49752
55.00 0.48105
55.50 0.46444
56.00 0.44709
56.50 0.42948
57.00 0.40764
57.50 0.38565
58.00 0.36351
58.50 0.34112
59.00 0.31470
59.50 0.28815
60.00 0.26634
60.50 0.24528
61.00 0.22413
61.50 0.20288
62.00 0.17924
62.50 0.15404
63.00 0.13723
63.50 0.12200
64.00 0.10958
64.50 0.09714
65.00 0.08471
65.50 0.07324
66.00 0.06535
66.50 0.05745
67.00 0.04953
67.50 0.04350
68.00 0.03763
68.50 0.03303
69.00 0.02981
69.50 0.02658
70.00 0.02335
70.50 0.02012
71.00 0.01704
71.50 0.01514
72.00 0.01365
72.50 0.01217
73.00 0.01069
73.50 0.00921
74.00 0.00776
74.50 0.00697
75.00 0.00619
75.50 0.00541
76.00 0.00473
76.50 0.00407
77.00 0.00363
77.50 0.00327
78.00 0.00292
78.50 0.00258
79.00 0.00224
79.50 0.00191
80.00 0.00173
80.50 0.00155
81.00 0.00136
81.50 0.00122
82.00 0.00109
82.50 0.00096
83.00 0.00086
83.50 0.00077
84.00 0.00069
84.50 0.00063
85.00 0.00058
85.50 0.00052
86.00 0.00048
86.50 0.00044
87.00 0.00042
87.50 0.00039
88.00 0.00037
88.50 0.00035
89.00 0.00034
89.50 0.00033
90.00 0.00032
90.00 0.00032
90.50 0.00033
91.00 0.00034
91.50 0.00035
92.00 0.00037
92.50 0.00039
93.00 0.00042
93.50 0.00044
94.00 0.00048
94.50 0.00052
95.00 0.00058
95.50 0.00063
96.00 0.00069
96.50 0.00077
97.00 0.00086
97.50 0.00096
98.00 0.00109
98.50 0.00122
99.00 0.00136
99.50 0.00155
100.00 0.00173
100.50 0.00191
101.00 0.00224
101.50 0.00258
102.00 0.00292
102.50 0.00327
103.00 0.00363
103.50 0.00407
104.00 0.00473
104.50 0.00541
105.00 0.00619
105.50 0.00697
106.00 0.00776
106.50 0.00921
107.00 0.01069
107.50 0.01217
108.00 0.01365
108.50 0.01514
109.00 0.01704
109.50 0.02012
110.00 0.02335
110.50 0.02658
111.00 0.02981
111.50 0.03303
112.00 0.03763
112.50 0.04350
113.00 0.04953
113.50 0.05745
114.00 0.06535
114.50 0.07324
115.00 0.08471
115.50 0.09714
116.00 0.10958
116.50 0.12200
117.00 0.13723
117.50 0.15404
118.00 0.17924
118.50 0.20288
119.00 0.22413
119.50 0.24528
120.00 0.26634
120.50 0.28815
121.00 0.31470
121.50 0.34112
122.00 0.36351
122.50 0.38565
123.00 0.40764
123.50 0.42948
124.00 0.44709
124.50 0.46444
125.00 0.48105
125.50 0.49752
126.00 0.51386
126.50 0.53053
127.00 0.54899
127.50 0.56556
128.00 0.58209
128.50 0.59859
129.00 0.61426
129.50 0.62928
130.00 0.64545
130.50 0.66483
131.00 0.68253
131.50 0.70023
132.00 0.71961
132.50 0.73911
133.00 0.75963
133.50 0.78047
134.00 0.80147
134.50 0.82266
135.00 0.84398
135.50 0.86527
136.00 0.88692
136.50 0.90803
137.00 0.92870
137.50 0.94938
138.00 0.96993
138.50 0.99067
139.00 1.01117
139.50 1.03102
140.00 1.05071
140.50 1.07095
141.00 1.09107
141.50 1.10961
142.00 1.12819
142.50 1.14791
143.00 1.16768
143.50 1.18707
144.00 1.20583
144.50 1.22407
145.00 1.24131
145.50 1.25996
146.00 1.27898
146.50 1.29804
147.00 1.31716
147.50 1.33633
148.00 1.35531
148.50 1.37320
149.00 1.39141
149.50 1.40987
150.00 1.42841
150.50 1.44702
151.00 1.46567
151.50 1.48437
152.00 1.50288
152.50 1.52138
153.00 1.53816
153.50 1.55282
154.00 1.56751
154.50 1.58223
155.00 1.59696
155.50 1.61269
156.00 1.62586
156.50 1.63122
157.00 1.63913
157.50 1.64795
158.00 1.65681
158.50 1.66570
159.00 1.67334
159.50 1.67537
160.00 1.67747
160.50 1.68071
161.00 1.68446
161.50 1.68828
162.00 1.69217
162.50 1.69559
163.00 1.69738
163.50 1.69924
164.00 1.70118
164.50 1.70333
165.00 1.70557
165.50 1.70791
166.00 1.71034
166.50 1.71174
167.00 1.71278
167.50 1.71335
168.00 1.71275
168.50 1.71223
169.00 1.71181
169.50 1.71148
170.00 1.70990
170.50 1.70755
171.00 1.70431
171.50 1.70234
172.00 1.70084
172.50 1.69947
173.00 1.69823
173.50 1.69661
174.00 1.69450
174.50 1.69252
175.00 1.69116
175.50 1.69013
176.00 1.68921
176.50 1.68822
177.00 1.68737
177.50 1.68666
178.00 1.68608
178.50 1.68580
179.00 1.68566
179.50 1.68566
180.00 1.68580
180.00 1.68580
180.50 1.68566
181.00 1.68566
181.50 1.68580
182.00 1.68608
182.50 1.68666
183.00 1.68737
183.50 1.68822
184.00 1.68921
184.50 1.69013
185.00 1.69116
185.50 1.69252
186.00 1.69450
186.50 1.69661
187.00 1.69823
187.50 1.69947
188.00 1.70084
188.50 1.70234
189.00 1.70431
189.50 1.70755
190.00 1.70990
190.50 1.71148
191.00 1.71181
191.50 1.71223
192.00 1.71275
192.50 1.71335
193.00 1.71278
193.50 1.71174
194.00 1.71034
194.50 1.70791
195.00 1.70557
195.50 1.70333
196.00 1.70118
196.50 1.69924
197.00 1.69738
197.50 1.69559
198.00 1.69217
198.50 1.68828
199.00 1.68446
199.50 1.68071
200.00 1.67747
200.50 1.67537
201.00 1.67334
201.50 1.66570
202.00 1.65681
202.50 1.64795
203.00 1.63913
203.50 1.63122
204.00 1.62586
204.50 1.61269
205.00 1.59696
205.50 1.58223
206.00 1.56751
206.50 1.55282
207.00 1.53816
207.50 1.52138
208.00 1.50288
208.50 1.48437
209.00 1.46567
209.50 1.44702
210.00 1.42841
210.50 1.40987
211.00 1.39141
211.50 1.37320
212.00 1.35531
212.50 1.33633
213.00 1.31716
213.50 1.29804
214.00 1.27898
214.50 1.25996
215.00 1.24131
215.50 1.22407
216.00 1.20583
216.50 1.18707
217.00 1.16768
217.50 1.14791
218.00 1.12819
218.50 1.10961
219.00 1.09107
219.50 1.07095
220.00 1.05071
220.50 1.03102
221.00 1.01117
221.50 0.99067
222.00 0.96993
222.50 0.94938
223.00 0.92870
223.50 0.90803
224.00 0.88692
224.50 0.86527
225.00 0.84398
225.50 0.82266
226.00 0.80147
226.50 0.78047
227.00 0.75963
227.50 0.73911
228.00 0.71961
228.50 0.70023
229.00 0.68253
229.50 0.66483
230.00 0.64545
230.50 0.62928
231.00 0.61426
231.50 0.59859
232.00 0.58209
232.50 0.56556
233.00 0.54899
233.50 0.53053
234.00 0.51386
234.50 0.49752
235.00 0.48105
235.50 0.46444
236.00 0.44709
236.50 0.42948
237.00 0.40764
237.50 0.38565
238.00 0.36351
238.50 0.34112
239.00 0.31470
239.50 0.28815
240.00 0.26634
240.50 0.24528
241.00 0.22413
241.50 0.20288
242.00 0.17924
242.50 0.15404
243.00 0.13723
243.50 0.12200
244.00 0.10958
244.50 0.09714
245.00 0.08471
245.50 0.07324
246.00 0.06535
246.50 0.05745
247.00 0.04953
247.50 0.04350
248.00 0.03763
248.50 0.03303
249.00 0.02981
249.50 0.02658
250.00 0.02335
250.50 0.02012
251.00 0.01704
251.50 0.01514
252.00 0.01365
252.50 0.01217
253.00 0.01069
253.50 0.00921
254.00 0.00776
254.50 0.00697
255.00 0.00619
255.50 0.00541
256.00 0.00473
256.50 0.00407
257.00 0.00363
257.50 0.00327
258.00 0.00292
258.50 0.00258
259.00 0.00224
259.50 0.00191
260.00 0.00173
260.50 0.00155
261.00 0.00136
261.50 0.00122
262.00 0.00109
262.50 0.00096
263.00 0.00086
263.50 0.00077
264.00 0.00069
264.50 0.00063
265.00 0.00058
265.50 0.00052
266.00 0.00048
266.50 0.00044
267.00 0.00042
267.50 0.00039
268.00 0.00037
268.50 0.00035
269.00 0.00034
269.50 0.00033
270.00 0.00032
270.00 0.00032
270.50 0.00033
271.00 0.00034
271.50 0.00035
272.00 0.00037
272.50 0.00039
273.00 0.00042
273.50 0.00044
274.00 0.00048
274.50 0.00052
275.00 0.00058
275.50 0.00063
276.00 0.00069
276.50 0.00077
277.00 0.00086
277.50 0.00096
278.00 0.00109
278.50 0.00122
279.00 0.00136
279.50 0.00155
280.00 0.00173
280.50 0.00191
281.00 0.00224
281.50 0.00258
282.00 0.00292
282.50 0.00327
283.00 0.00363
283.50 0.00407
284.00 0.00473
284.50 0.00541
285.00 0.00619
285.50 0.00697
286.00 0.00776
286.50 0.00921
287.00 0.01069
287.50 0.01217
288.00 0.01365
288.50 0.01514
289.00 0.01704
289.50 0.02012
290.00 0.02335
290.50 0.02658
291.00 0.02981
291.50 0.03303
292.00 0.03763
292.50 0.04350
293.00 0.04953
293.50 0.05745
294.00 0.06535
294.50 0.07324
295.00 0.08471
295.50 0.09714
296.00 0.10958
296.50 0.12200
297.00 0.13723
297.50 0.15404
298.00 0.17924
298.50 0.20288
299.00 0.22413
299.50 0.24528
300.00 0.26634
300.50 0.28815
301.00 0.31470
301.50 0.34112
302.00 0.36351
302.50 0.38565
303.00 0.40764
303.50 0.42948
304.00 0.44709
304.50 0.46444
305.00 0.48105
305.50 0.49752
306.00 0.51386
306.50 0.53053
307.00 0.54899
307.50 0.56556
308.00 0.58209
308.50 0.59859
309.00 0.61426
309.50 0.62928
310.00 0.64545
310.50 0.66483
311.00 0.68253
311.50 0.70023
312.00 0.71961
312.50 0.73911
313.00 0.75963
313.50 0.78047
314.00 0.80147
314.50 0.82266
315.00 0.84398
315.50 0.86527
316.00 0.88692
316.50 0.90803
317.00 0.92870
317.50 0.94938
318.00 0.96993
318.50 0.99067
319.00 1.01117
319.50 1.03102
320.00 1.05071
320.50 1.07095
321.00 1.09107
321.50 1.10961
322.00 1.12819
322.50 1.14791
323.00 1.16768
323.50 1.18707
324.00 1.20583
324.50 1.22407
325.00 1.24131
325.50 1.25996
326.00 1.27898
326.50 1.29804
327.00 1.31716
327.50 1.33633
328.00 1.35531
328.50 1.37320
329.00 1.39141
329.50 1.40987
330.00 1.42841
330.50 1.44702
331.00 1.46567
331.50 1.48437
332.00 1.50288
332.50 1.52138
333.00 1.53816
333.50 1.55282
334.00 1.56751
334.50 1.58223
335.00 1.59696
335.50 1.61269
336.00 1.62586
336.50 1.63122
337.00 1.63913
337.50 1.64795
338.00 1.65681
338.50 1.66570
339.00 1.67334
339.50 1.67537
340.00 1.67747
340.50 1.68071
341.00 1.68446
341.50 1.68828
342.00 1.69217
342.50 1.69559
343.00 1.69738
343.50 1.69924
344.00 1.70118
344.50 1.70333
345.00 1.70557
345.50 1.70791
346.00 1.71034
346.50 1.71174
347.00 1.71278
347.50 1.71335
348.00 1.71275
348.50 1.71223
349.00 1.71181
349.50 1.71148
350.00 1.70990
350.50 1.70755
351.00 1.70431
351.50 1.70234
352.00 1.70084
352.50 1.69947
353.00 1.69823
353.50 1.69661
354.00 1.69450
354.50 1.69252
355.00 1.69116
355.50 1.69013
356.00 1.68921
356.50 1.68822
357.00 1.68737
357.50 1.68666
358.00 1.68608
358.50 1.68580
359.00 1.68566
359.50 1.68566
360.00 1.68580
