phi[deg] B[T]
0.00 1.69434
0.50 1.69393
1.00 1.69364
1.50 1.69348
2.00 1.69344
2.50 1.69352
3.00 1.69369
3.50 1.69398
4.00 1.69440
4.50 1.69494
5.00 1.69499
5.50 1.69472
6.00 1.69456
6.50 1.69453
7.00 1.69464
7.50 1.69558
8.00 1.69662
8.50 1.69716
9.00 1.69692
9.50 1.69600
10.00 1.69518
10.50 1.69445
11.00 1.69382
11.50 1.69329
12.00 1.69282
12.50 1.69230
13.00 1.69188
13.50 1.69002
14.00 1.68807
14.50 1.68622
15.00 1.68362
15.50 1.68081
16.00 1.67808
16.50 1.67543
17.00 1.67272
17.50 1.66999
18.00 1.66736
18.50 1.66480
19.00 1.65886
19.50 1.65247
20.00 1.64613
20.50 1.63986
21.00 1.63333
21.50 1.62687
22.00 1.62046
22.50 1.61154
23.00 1.60184
23.50 1.59218
24.00 1.58258
24.50 1.57398
25.00 1.56527
25.50 1.55468
26.00 1.54310
26.50 1.53154
27.00 1.52001
27.50 1.50849
28.00 1.49801
28.50 1.48880
29.00 1.47655
29.50 1.46283
30.00 1.44827
30.50 1.43255
31.00 1.41682
31.50 1.40107
32.00 1.38530
32.50 1.36980
33.00 1.35470
33.50 1.33959
34.00 1.32274
34.50 1.30191
35.00 1.28104
35.50 1.26014
36.00 1.23920
36.50 1.21882
37.00 1.20267
37.50 1.18572
38.00 1.16437
38.50 1.14085
39.00 1.11722
39.50 1.09357
40.00 1.06988
40.50 1.04535
41.00 1.02055
41.50 0.99565
42.00 0.96610
42.50 0.94017
43.00 0.91409
43.50 0.88556
44.00 0.85466
44.50 0.82360
45.00 0.79270
45.50 0.76042
46.00 0.72960
46.50 0.69859
47.00 0.66397
47.50 0.62813
48.00 0.59418
48.50 0.56216
49.00 0.53028
49.50 0.49361
50.00 0.45910
50.50 0.42929
51.00 0.39937
51.50 0.36934
52.00 0.33663
52.50 0.30267
53.00 0.27735
53.50 0.25432
54.00 0.23123
54.50 0.20809
55.00 0.18610
55.50 0.17191
56.00 0.15772
56.50 0.14353
57.00 0.12933
57.50 0.11514
58.00 0.10115
58.50 0.09216
59.00 0.08459
59.50 0.07702
60.00 0.06944
60.50 0.06187
61.00 0.05430
61.50 0.04775
62.00 0.04391
62.50 0.04007
63.00 0.03623
63.50 0.03238
64.00 0.02868
64.50 0.02573
65.00 0.02365
65.50 0.02157
66.00 0.01948
66.50 0.01740
67.00 0.01532
67.50 0.01393
68.00 0.01274
68.50 0.01155
69.00 0.01033
69.50 0.00910
70.00 0.00817
70.50 0.00756
71.00 0.00695
71.50 0.00634
72.00 0.00572
72.50 0.00511
73.00 0.00450
73.50 0.00397
74.00 0.00367
74.50 0.00336
75.00 0.00305
75.50 0.00275
76.00 0.00244
76.50 0.00214
77.00 0.00194
77.50 0.00179
78.00 0.00165
78.50 0.00150
79.00 0.00136
79.50 0.00121
80.00 0.00106
80.50 0.00098
81.00 0.00091
81.50 0.00084
82.00 0.00077
82.50 0.00070
83.00 0.00063
83.50 0.00056
84.00 0.00051
84.50 0.00046
85.00 0.00043
85.50 0.00040
86.00 0.00038
86.50 0.00035
87.00 0.00032
87.50 0.00030
88.00 0.00028
88.50 0.00027
89.00 0.00026
89.50 0.00025
90.00 0.00024
90.00 0.00024
90.50 0.00025
91.00 0.00026
91.50 0.00027
92.00 0.00028
92.50 0.00030
93.00 0.00032
93.50 0.00035
94.00 0.00038
94.50 0.00040
95.00 0.00043
95.50 0.00046
96.00 0.00051
96.50 0.00056
97.00 0.00063
97.50 0.00070
98.00 0.00077
98.50 0.00084
99.00 0.00091
99.50 0.00098
100.00 0.00106
100.50 0.00121
101.00 0.00136
101.50 0.00150
102.00 0.00165
102.50 0.00179
103.00 0.00194
103.50 0.00214
104.00 0.00244
104.50 0.00275
105.00 0.00305
105.50 0.00336
106.00 0.00367
106.50 0.00397
107.00 0.00450
107.50 0.00511
108.00 0.00572
108.50 0.00634
109.00 0.00695
109.50 0.00756
110.00 0.00817
110.50 0.00910
111.00 0.01033
111.50 0.01155
112.00 0.01274
112.50 0.01393
113.00 0.01532
113.50 0.01740
114.00 0.01948
114.50 0.02157
115.00 0.02365
115.50 0.02573
116.00 0.02868
116.50 0.03238
117.00 0.03623
117.50 0.04007
118.00 0.04391
118.50 0.04775
119.00 0.05430
119.50 0.06187
120.00 0.06944
120.50 0.07702
121.00 0.08459
121.50 0.09216
122.00 0.10115
122.50 0.11514
123.00 0.12933
123.50 0.14353
124.00 0.15772
124.50 0.17191
125.00 0.18610
125.50 0.20809
126.00 0.23123
126.50 0.25432
127.00 0.27735
127.50 0.30267
128.00 0.33663
128.50 0.36934
129.00 0.39937
129.50 0.42929
130.00 0.45910
130.50 0.49361
131.00 0.53028
131.50 0.56216
132.00 0.59418
132.50 0.62813
133.00 0.66397
133.50 0.69859
134.00 0.72960
134.50 0.76042
135.00 0.79270
135.50 0.82360
136.00 0.85466
136.50 0.88556
137.00 0.91409
137.50 0.94017
138.00 0.96610
138.50 0.99565
139.00 1.02055
139.50 1.04535
140.00 1.06988
140.50 1.09357
141.00 1.11722
141.50 1.14085
142.00 1.16437
142.50 1.18572
143.00 1.20267
143.50 1.21882
144.00 1.23920
144.50 1.26014
145.00 1.28104
145.50 1.30191
146.00 1.32274
146.50 1.33959
147.00 1.35470
147.50 1.36980
148.00 1.38530
148.50 1.40107
149.00 1.41682
149.50 1.43255
150.00 1.44827
150.50 1.46283
151.00 1.47655
151.50 1.48880
152.00 1.49801
152.50 1.50849
153.00 1.52001
153.50 1.53154
154.00 1.54310
154.50 1.55468
155.00 1.56527
155.50 1.57398
156.00 1.58258
156.50 1.59218
157.00 1.60184
157.50 1.61154
158.00 1.62046
158.50 1.62687
159.00 1.63333
159.50 1.63986
160.00 1.64613
160.50 1.65247
161.00 1.65886
161.50 1.66480
162.00 1.66736
162.50 1.66999
163.00 1.67272
163.50 1.67543
164.00 1.67808
164.50 1.68081
165.00 1.68362
165.50 1.68622
166.00 1.68807
166.50 1.69002
167.00 1.69188
167.50 1.69230
168.00 1.69282
168.50 1.69329
169.00 1.69382
169.50 1.69445
170.00 1.69518
170.50 1.69600
171.00 1.69692
171.50 1.69716
172.00 1.69662
172.50 1.69558
173.00 1.69464
173.50 1.69453
174.00 1.69456
174.50 1.69472
175.00 1.69499
175.50 1.69494
176.00 1.69440
176.50 1.69398
177.00 1.69369
177.50 1.69352
178.00 1.69344
178.50 1.69348
179.00 1.69364
179.50 1.69393
180.00 1.69434
180.00 1.69434
180.50 1.69393
181.00 1.69364
181.50 1.69348
182.00 1.69344
182.50 1.69352
183.00 1.69369
183.50 1.69398
184.00 1.69440
184.50 1.69494
185.00 1.69499
185.50 1.69472
186.00 1.69456
186.50 1.69453
187.00 1.69464
187.50 1.69558
188.00 1.69662
188.50 1.69716
189.00 1.69692
189.50 1.69600
190.00 1.69518
190.50 1.69445
191.00 1.69382
191.50 1.69329
192.00 1.69282
192.50 1.69230
193.00 1.69188
193.50 1.69002
194.00 1.68807
194.50 1.68622
195.00 1.68362
195.50 1.68081
196.00 1.67808
196.50 1.67543
197.00 1.67272
197.50 1.66999
198.00 1.66736
198.50 1.66480
199.00 1.65886
199.50 1.65247
200.00 1.64613
200.50 1.63986
201.00 1.63333
201.50 1.62687
202.00 1.62046
202.50 1.61154
203.00 1.60184
203.50 1.59218
204.00 1.58258
204.50 1.57398
205.00 1.56527
205.50 1.55468
206.00 1.54310
206.50 1.53154
207.00 1.52001
207.50 1.50849
208.00 1.49801
208.50 1.48880
209.00 1.47655
209.50 1.46283
210.00 1.44827
210.50 1.43255
211.00 1.41682
211.50 1.40107
212.00 1.38530
212.50 1.36980
213.00 1.35470
213.50 1.33959
214.00 1.32274
214.50 1.30191
215.00 1.28104
215.50 1.26014
216.00 1.23920
216.50 1.21882
217.00 1.20267
217.50 1.18572
218.00 1.16437
218.50 1.14085
219.00 1.11722
219.50 1.09357
220.00 1.06988
220.50 1.04535
221.00 1.02055
221.50 0.99565
222.00 0.96610
222.50 0.94017
223.00 0.91409
223.50 0.88556
224.00 0.85466
224.50 0.82360
225.00 0.79270
225.50 0.76042
226.00 0.72960
226.50 0.69859
227.00 0.66397
227.50 0.62813
228.00 0.59418
228.50 0.56216
229.00 0.53028
229.50 0.49361
230.00 0.45910
230.50 0.42929
231.00 0.39937
231.50 0.36934
232.00 0.33663
232.50 0.30267
233.00 0.27735
233.50 0.25432
234.00 0.23123
234.50 0.20809
235.00 0.18610
235.50 0.17191
236.00 0.15772
236.50 0.14353
237.00 0.12933
237.50 0.11514
238.00 0.10115
238.50 0.09216
239.00 0.08459
239.50 0.07702
240.00 0.06944
240.50 0.06187
241.00 0.05430
241.50 0.04775
242.00 0.04391
242.50 0.04007
243.00 0.03623
243.50 0.03238
244.00 0.02868
244.50 0.02573
245.00 0.02365
245.50 0.02157
246.00 0.01948
246.50 0.01740
247.00 0.01532
247.50 0.01393
248.00 0.01274
248.50 0.01155
249.00 0.01033
249.50 0.00910
250.00 0.00817
250.50 0.00756
251.00 0.00695
251.50 0.00634
252.00 0.00572
252.50 0.00511
253.00 0.00450
253.50 0.00397
254.00 0.00367
254.50 0.00336
255.00 0.00305
255.50 0.00275
256.00 0.00244
256.50 0.00214
257.00 0.00194
257.50 0.00179
258.00 0.00165
258.50 0.00150
259.00 0.00136
259.50 0.00121
260.00 0.00106
260.50 0.00098
261.00 0.00091
261.50 0.00084
262.00 0.00077
262.50 0.00070
263.00 0.00063
263.50 0.00056
264.00 0.00051
264.50 0.00046
265.00 0.00043
265.50 0.00040
266.00 0.00038
266.50 0.00035
267.00 0.00032
267.50 0.00030
268.00 0.00028
268.50 0.00027
269.00 0.00026
269.50 0.00025
270.00 0.00024
270.00 0.00024
270.50 0.00025
271.00 0.00026
271.50 0.00027
272.00 0.00028
272.50 0.00030
273.00 0.00032
273.50 0.00035
274.00 0.00038
274.50 0.00040
275.00 0.00043
275.50 0.00046
276.00 0.00051
276.50 0.00056
277.00 0.00063
277.50 0.00070
278.00 0.00077
278.50 0.00084
279.00 0.00091
279.50 0.00098
280.00 0.00106
280.50 0.00121
281.00 0.00136
281.50 0.00150
282.00 0.00165
282.50 0.00179
283.00 0.00194
283.50 0.00214
284.00 0.00244
284.50 0.00275
285.00 0.00305
285.50 0.00336
286.00 0.00367
286.50 0.00397
287.00 0.00450
287.50 0.00511
288.00 0.00572
288.50 0.00634
289.00 0.00695
289.50 0.00756
290.00 0.00817
290.50 0.00910
291.00 0.01033
291.50 0.01155
292.00 0.01274
292.50 0.01393
293.00 0.01532
293.50 0.01740
294.00 0.01948
294.50 0.02157
295.00 0.02365
295.50 0.02573
296.00 0.02868
296.50 0.03238
297.00 0.03623
297.50 0.04007
298.00 0.04391
298.50 0.04775
299.00 0.05430
299.50 0.06187
300.00 0.06944
300.50 0.07702
301.00 0.08459
301.50 0.09216
302.00 0.10115
302.50 0.11514
303.00 0.12933
303.50 0.14353
304.00 0.15772
304.50 0.17191
305.00 0.18610
305.50 0.20809
306.00 0.23123
306.50 0.25432
307.00 0.27735
307.50 0.30267
308.00 0.33663
308.50 0.36934
309.00 0.39937
309.50 0.42929
310.00 0.45910
310.50 0.49361
311.00 0.53028
311.50 0.56216
312.00 0.59418
312.50 0.62813
313.00 0.66397
313.50 0.69859
314.00 0.72960
314.50 0.76042
315.00 0.79270
315.50 0.82360
316.00 0.85466
316.50 0.88556
317.00 0.91409
317.50 0.94017
318.00 0.96610
318.50 0.99565
319.00 1.02055
319.50 1.04535
320.00 1.06988
320.50 1.09357
321.00 1.11722
321.50 1.14085
322.00 1.16437
322.50 1.18572
323.00 1.20267
323.50 1.21882
324.00 1.23920
324.50 1.26014
325.00 1.28104
325.50 1.30191
326.00 1.32274
326.50 1.33959
327.00 1.35470
327.50 1.36980
328.00 1.38530
328.50 1.40107
329.00 1.41682
329.50 1.43255
330.00 1.44827
330.50 1.46283
331.00 1.47655
331.50 1.48880
332.00 1.49801
332.50 1.50849
333.00 1.52001
333.50 1.53154
334.00 1.54310
334.50 1.55468
335.00 1.56527
335.50 1.57398
336.00 1.58258
336.50 1.59218
337.00 1.60184
337.50 1.61154
338.00 1.62046
338.50 1.62687
339.00 1.63333
339.50 1.63986
340.00 1.64613
340.50 1.65247
341.00 1.65886
341.50 1.66480
342.00 1.66736
342.50 1.66999
343.00 1.67272
343.50 1.67543
344.00 1.67808
344.50 1.68081
345.00 1.68362
345.50 1.68622
346.00 1.68807
346.50 1.69002
347.00 1.69188
347.50 1.69230
348.00 1.69282
348.50 1.69329
349.00 1.69382
349.50 1.69445
350.00 1.69518
350.50 1.69600
351.00 1.69692
351.50 1.69716
352.00 1.69662
352.50 1.69558
353.00 1.69464
353.50 1.69453
354.00 1.69456
354.50 1.69472
355.00 1.69499
355.50 1.69494
356.00 1.69440
356.50 1.69398
357.00 1.69369
357.50 1.69352
358.00 1.69344
358.50 1.69348
359.00 1.69364
359.50 1.69393
360.00 1.69434
