phi[deg] B[T]
0.00 1.36014
0.50 1.35957
1.00 1.35938
1.50 1.35935
2.00 1.35922
2.50 1.35865
3.00 1.35814
3.50 1.35723
4.00 1.35636
4.50 1.35558
5.00 1.35486
5.50 1.35309
6.00 1.35074
6.50 1.34963
7.00 1.34856
7.50 1.34610
8.00 1.34297
8.50 1.33987
9.00 1.33682
9.50 1.33319
10.00 1.32850
10.50 1.32378
11.00 1.31903
11.50 1.31426
12.00 1.31054
12.50 1.30703
13.00 1.29735
13.50 1.28761
14.00 1.27781
14.50 1.26781
15.00 1.25605
15.50 1.24449
16.00 1.23282
16.50 1.22116
17.00 1.20947
17.50 1.19020
18.00 1.17079
18.50 1.15124
19.00 1.13121
19.50 1.10962
20.00 1.08781
20.50 1.06578
21.00 1.04328
21.50 1.01929
22.00 0.98823
22.50 0.95650
23.00 0.92455
23.50 0.89331
24.00 0.85907
24.50 0.82496
25.00 0.79168
25.50 0.75812
26.00 0.72430
26.50 0.68827
27.00 0.64608
27.50 0.60441
28.00 0.56830
28.50 0.53202
29.00 0.49557
29.50 0.45664
30.00 0.41799
30.50 0.38892
31.00 0.35976
31.50 0.33053
32.00 0.29963
32.50 0.26741
33.00 0.24204
33.50 0.22022
34.00 0.20370
34.50 0.18719
35.00 0.17067
35.50 0.15416
36.00 0.13766
36.50 0.12161
37.00 0.10762
37.50 0.09561
38.00 0.08809
38.50 0.08057
39.00 0.07267
39.50 0.06474
40.00 0.05682
40.50 0.05121
41.00 0.04683
41.50 0.04244
42.00 0.03806
42.50 0.03366
43.00 0.03046
43.50 0.02779
44.00 0.02511
44.50 0.02244
45.00 0.01976
45.50 0.01815
46.00 0.01653
46.50 0.01492
47.00 0.01330
47.50 0.01169
48.00 0.01074
48.50 0.00982
49.00 0.00891
49.50 0.00800
50.00 0.00708
50.50 0.00635
51.00 0.00571
51.50 0.00518
52.00 0.00477
52.50 0.00435
53.00 0.00394
53.50 0.00352
54.00 0.00313
54.50 0.00275
55.00 0.00255
55.50 0.00237
56.00 0.00218
56.50 0.00200
57.00 0.00182
57.50 0.00163
58.00 0.00145
58.50 0.00130
59.00 0.00122
59.50 0.00114
60.00 0.00105
60.50 0.00097
61.00 0.00089
61.50 0.00081
62.00 0.00072
62.50 0.00066
63.00 0.00063
63.50 0.00060
64.00 0.00057
64.50 0.00053
65.00 0.00050
65.50 0.00047
66.00 0.00044
66.50 0.00041
67.00 0.00040
67.50 0.00038
68.00 0.00037
68.50 0.00035
69.00 0.00033
69.50 0.00032
70.00 0.00031
70.50 0.00030
71.00 0.00029
71.50 0.00028
72.00 0.00027
72.50 0.00026
73.00 0.00025
73.50 0.00024
74.00 0.00024
74.50 0.00023
75.00 0.00022
75.50 0.00021
76.00 0.00021
76.50 0.00020
77.00 0.00019
77.50 0.00018
78.00 0.00018
78.50 0.00017
79.00 0.00016
79.50 0.00015
80.00 0.00015
80.50 0.00014
81.00 0.00013
81.50 0.00013
82.00 0.00012
82.50 0.00011
83.00 0.00010
83.50 0.00010
84.00 0.00009
84.50 0.00008
85.00 0.00008
85.50 0.00007
86.00 0.00006
86.50 0.00005
87.00 0.00005
87.50 0.00004
88.00 0.00003
88.50 0.00003
89.00 0.00003
89.50 0.00002
90.00 0.00002
90.00 0.00002
90.50 0.00002
91.00 0.00003
91.50 0.00003
92.00 0.00003
92.50 0.00004
93.00 0.00005
93.50 0.00005
94.00 0.00006
94.50 0.00007
95.00 0.00008
95.50 0.00008
96.00 0.00009
96.50 0.00010
97.00 0.00010
97.50 0.00011
98.00 0.00012
98.50 0.00013
99.00 0.00013
99.50 0.00014
100.00 0.00015
100.50 0.00015
101.00 0.00016
101.50 0.00017
102.00 0.00018
102.50 0.00018
103.00 0.00019
103.50 0.00020
104.00 0.00021
104.50 0.00021
105.00 0.00022
105.50 0.00023
106.00 0.00024
106.50 0.00024
107.00 0.00025
107.50 0.00026
108.00 0.00027
108.50 0.00028
109.00 0.00029
109.50 0.00030
110.00 0.00031
110.50 0.00032
111.00 0.00033
111.50 0.00035
112.00 0.00037
112.50 0.00038
113.00 0.00040
113.50 0.00041
114.00 0.00044
114.50 0.00047
115.00 0.00050
115.50 0.00053
116.00 0.00057
116.50 0.00060
117.00 0.00063
117.50 0.00066
118.00 0.00072
118.50 0.00081
119.00 0.00089
119.50 0.00097
120.00 0.00105
120.50 0.00114
121.00 0.00122
121.50 0.00130
122.00 0.00145
122.50 0.00163
123.00 0.00182
123.50 0.00200
124.00 0.00218
124.50 0.00237
125.00 0.00255
125.50 0.00275
126.00 0.00313
126.50 0.00352
127.00 0.00394
127.50 0.00435
128.00 0.00477
128.50 0.00518
129.00 0.00571
129.50 0.00635
130.00 0.00708
130.50 0.00800
131.00 0.00891
131.50 0.00982
132.00 0.01074
132.50 0.01169
133.00 0.01330
133.50 0.01492
134.00 0.01653
134.50 0.01815
135.00 0.01976
135.50 0.02244
136.00 0.02511
136.50 0.02779
137.00 0.03046
137.50 0.03366
138.00 0.03806
138.50 0.04244
139.00 0.04683
139.50 0.05121
140.00 0.05682
140.50 0.06474
141.00 0.07267
141.50 0.08057
142.00 0.08809
142.50 0.09561
143.00 0.10762
143.50 0.12161
144.00 0.13766
144.50 0.15416
145.00 0.17067
145.50 0.18719
146.00 0.20370
146.50 0.22022
147.00 0.24204
147.50 0.26741
148.00 0.29963
148.50 0.33053
149.00 0.35976
149.50 0.38892
150.00 0.41799
150.50 0.45664
151.00 0.49557
151.50 0.53202
152.00 0.56830
152.50 0.60441
153.00 0.64608
153.50 0.68827
154.00 0.72430
154.50 0.75812
155.00 0.79168
155.50 0.82496
156.00 0.85907
156.50 0.89331
157.00 0.92455
157.50 0.95650
158.00 0.98823
158.50 1.01929
159.00 1.04328
159.50 1.06578
160.00 1.08781
160.50 1.10962
161.00 1.13121
161.50 1.15124
162.00 1.17079
162.50 1.19020
163.00 1.20947
163.50 1.22116
164.00 1.23282
164.50 1.24449
165.00 1.25605
165.50 1.26781
166.00 1.27781
166.50 1.28761
167.00 1.29735
167.50 1.30703
168.00 1.31054
168.50 1.31426
169.00 1.31903
169.50 1.32378
170.00 1.32850
170.50 1.33319
171.00 1.33682
171.50 1.33987
172.00 1.34297
172.50 1.34610
173.00 1.34856
173.50 1.34963
174.00 1.35074
174.50 1.35309
175.00 1.35486
175.50 1.35558
176.00 1.35636
176.50 1.35723
177.00 1.35814
177.50 1.35865
178.00 1.35922
178.50 1.35935
179.00 1.35938
179.50 1.35957
180.00 1.36014
180.00 1.36014
180.50 1.35957
181.00 1.35938
181.50 1.35935
182.00 1.35922
182.50 1.35865
183.00 1.35814
183.50 1.35723
184.00 1.35636
184.50 1.35558
185.00 1.35486
185.50 1.35309
186.00 1.35074
186.50 1.34963
187.00 1.34856
187.50 1.34610
188.00 1.34297
188.50 1.33987
189.00 1.33682
189.50 1.33319
190.00 1.32850
190.50 1.32378
191.00 1.31903
191.50 1.31426
192.00 1.31054
192.50 1.30703
193.00 1.29735
193.50 1.28761
194.00 1.27781
194.50 1.26781
195.00 1.25605
195.50 1.24449
196.00 1.23282
196.50 1.22116
197.00 1.20947
197.50 1.19020
198.00 1.17079
198.50 1.15124
199.00 1.13121
199.50 1.10962
200.00 1.08781
200.50 1.06578
201.00 1.04328
201.50 1.01929
202.00 0.98823
202.50 0.95650
203.00 0.92455
203.50 0.89331
204.00 0.85907
204.50 0.82496
205.00 0.79168
205.50 0.75812
206.00 0.72430
206.50 0.68827
207.00 0.64608
207.50 0.60441
208.00 0.56830
208.50 0.53202
209.00 0.49557
209.50 0.45664
210.00 0.41799
210.50 0.38892
211.00 0.35976
211.50 0.33053
212.00 0.29963
212.50 0.26741
213.00 0.24204
213.50 0.22022
214.00 0.20370
214.50 0.18719
215.00 0.17067
215.50 0.15416
216.00 0.13766
216.50 0.12161
217.00 0.10762
217.50 0.09561
218.00 0.08809
218.50 0.08057
219.00 0.07267
219.50 0.06474
220.00 0.05682
220.50 0.05121
221.00 0.04683
221.50 0.04244
222.00 0.03806
222.50 0.03366
223.00 0.03046
223.50 0.02779
224.00 0.02511
224.50 0.02244
225.00 0.01976
225.50 0.01815
226.00 0.01653
226.50 0.01492
227.00 0.01330
227.50 0.01169
228.00 0.01074
228.50 0.00982
229.00 0.00891
229.50 0.00800
230.00 0.00708
230.50 0.00635
231.00 0.00571
231.50 0.00518
232.00 0.00477
232.50 0.00435
233.00 0.00394
233.50 0.00352
234.00 0.00313
234.50 0.00275
235.00 0.00255
235.50 0.00237
236.00 0.00218
236.50 0.00200
237.00 0.00182
237.50 0.00163
238.00 0.00145
238.50 0.00130
239.00 0.00122
239.50 0.00114
240.00 0.00105
240.50 0.00097
241.00 0.00089
241.50 0.00081
242.00 0.00072
242.50 0.00066
243.00 0.00063
243.50 0.00060
244.00 0.00057
244.50 0.00053
245.00 0.00050
245.50 0.00047
246.00 0.00044
246.50 0.00041
247.00 0.00040
247.50 0.00038
248.00 0.00037
248.50 0.00035
249.00 0.00033
249.50 0.00032
250.00 0.00031
250.50 0.00030
251.00 0.00029
251.50 0.00028
252.00 0.00027
252.50 0.00026
253.00 0.00025
253.50 0.00024
254.00 0.00024
254.50 0.00023
255.00 0.00022
255.50 0.00021
256.00 0.00021
256.50 0.00020
257.00 0.00019
257.50 0.00018
258.00 0.00018
258.50 0.00017
259.00 0.00016
259.50 0.00015
260.00 0.00015
260.50 0.00014
261.00 0.00013
261.50 0.00013
262.00 0.00012
262.50 0.00011
263.00 0.00010
263.50 0.00010
264.00 0.00009
264.50 0.00008
265.00 0.00008
265.50 0.00007
266.00 0.00006
266.50 0.00005
267.00 0.00005
267.50 0.00004
268.00 0.00003
268.50 0.00003
269.00 0.00003
269.50 0.00002
270.00 0.00002
270.00 0.00002
270.50 0.00002
271.00 0.00003
271.50 0.00003
272.00 0.00003
272.50 0.00004
273.00 0.00005
273.50 0.00005
274.00 0.00006
274.50 0.00007
275.00 0.00008
275.50 0.00008
276.00 0.00009
276.50 0.00010
277.00 0.00010
277.50 0.00011
278.00 0.00012
278.50 0.00013
279.00 0.00013
279.50 0.00014
280.00 0.00015
280.50 0.00015
281.00 0.00016
281.50 0.00017
282.00 0.00018
282.50 0.00018
283.00 0.00019
283.50 0.00020
284.00 0.00021
284.50 0.00021
285.00 0.00022
285.50 0.00023
286.00 0.00024
286.50 0.00024
287.00 0.00025
287.50 0.00026
288.00 0.00027
288.50 0.00028
289.00 0.00029
289.50 0.00030
290.00 0.00031
290.50 0.00032
291.00 0.00033
291.50 0.00035
292.00 0.00037
292.50 0.00038
293.00 0.00040
293.50 0.00041
294.00 0.00044
294.50 0.00047
295.00 0.00050
295.50 0.00053
296.00 0.00057
296.50 0.00060
297.00 0.00063
297.50 0.00066
298.00 0.00072
298.50 0.00081
299.00 0.00089
299.50 0.00097
300.00 0.00105
300.50 0.00114
301.00 0.00122
301.50 0.00130
302.00 0.00145
302.50 0.00163
303.00 0.00182
303.50 0.00200
304.00 0.00218
304.50 0.00237
305.00 0.00255
305.50 0.00275
306.00 0.00313
306.50 0.00352
307.00 0.00394
307.50 0.00435
308.00 0.00477
308.50 0.00518
309.00 0.00571
309.50 0.00635
310.00 0.00708
310.50 0.00800
311.00 0.00891
311.50 0.00982
312.00 0.01074
312.50 0.01169
313.00 0.01330
313.50 0.01492
314.00 0.01653
314.50 0.01815
315.00 0.01976
315.50 0.02244
316.00 0.02511
316.50 0.02779
317.00 0.03046
317.50 0.03366
318.00 0.03806
318.50 0.04244
319.00 0.04683
319.50 0.05121
320.00 0.05682
320.50 0.06474
321.00 0.07267
321.50 0.08057
322.00 0.08809
322.50 0.09561
323.00 0.10762
323.50 0.12161
324.00 0.13766
324.50 0.15416
325.00 0.17067
325.50 0.18719
326.00 0.20370
326.50 0.22022
327.00 0.24204
327.50 0.26741
328.00 0.29963
328.50 0.33053
329.00 0.35976
329.50 0.38892
330.00 0.41799
330.50 0.45664
331.00 0.49557
331.50 0.53202
332.00 0.56830
332.50 0.60441
333.00 0.64608
333.50 0.68827
334.00 0.72430
334.50 0.75812
335.00 0.79168
335.50 0.82496
336.00 0.85907
336.50 0.89331
337.00 0.92455
337.50 0.95650
338.00 0.98823
338.50 1.01929
339.00 1.04328
339.50 1.06578
340.00 1.08781
340.50 1.10962
341.00 1.13121
341.50 1.15124
342.00 1.17079
342.50 1.19020
343.00 1.20947
343.50 1.22116
344.00 1.23282
344.50 1.24449
345.00 1.25605
345.50 1.26781
346.00 1.27781
346.50 1.28761
347.00 1.29735
347.50 1.30703
348.00 1.31054
348.50 1.31426
349.00 1.31903
349.50 1.32378
350.00 1.32850
350.50 1.33319
351.00 1.33682
351.50 1.33987
352.00 1.34297
352.50 1.34610
353.00 1.34856
353.50 1.34963
354.00 1.35074
354.50 1.35309
355.00 1.35486
355.50 1.35558
356.00 1.35636
356.50 1.35723
357.00 1.35814
357.50 1.35865
358.00 1.35922
358.50 1.35935
359.00 1.35938
359.50 1.35957
360.00 1.36014
