phi[deg] B[T]
0.00 1.60225
0.50 1.60205
1.00 1.60198
1.50 1.60203
2.00 1.60222
2.50 1.60258
3.00 1.60317
3.50 1.60389
4.00 1.60474
4.50 1.60571
5.00 1.60713
5.50 1.60886
6.00 1.61071
6.50 1.61186
7.00 1.61314
7.50 1.61453
8.00 1.61665
8.50 1.61891
9.00 1.62129
9.50 1.62253
10.00 1.62274
10.50 1.62319
11.00 1.62528
11.50 1.62746
12.00 1.62851
12.50 1.62840
13.00 1.62729
13.50 1.62561
14.00 1.62400
14.50 1.62247
15.00 1.62102
15.50 1.61965
16.00 1.61834
16.50 1.61705
17.00 1.61601
17.50 1.61237
18.00 1.60847
18.50 1.60462
19.00 1.60083
19.50 1.59709
20.00 1.59340
20.50 1.59052
21.00 1.58934
21.50 1.58366
22.00 1.57539
22.50 1.56711
23.00 1.55860
23.50 1.55012
24.00 1.54167
24.50 1.53115
25.00 1.51833
25.50 1.50555
26.00 1.49225
26.50 1.47754
27.00 1.46286
27.50 1.44850
28.00 1.43418
28.50 1.41967
29.00 1.40459
29.50 1.38951
30.00 1.37278
30.50 1.35608
31.00 1.33941
31.50 1.32277
32.00 1.30656
32.50 1.29164
33.00 1.27675
33.50 1.25842
34.00 1.23928
34.50 1.22016
35.00 1.20104
35.50 1.18158
36.00 1.16202
36.50 1.14230
37.00 1.12260
37.50 1.10261
38.00 1.08147
38.50 1.06034
39.00 1.03925
39.50 1.01824
40.00 0.99803
40.50 0.97787
41.00 0.95790
41.50 0.93809
42.00 0.91875
42.50 0.90046
43.00 0.88172
43.50 0.86294
44.00 0.84460
44.50 0.82660
45.00 0.80856
45.50 0.79102
46.00 0.77358
46.50 0.75614
47.00 0.73871
47.50 0.72127
48.00 0.70396
48.50 0.68693
49.00 0.66958
49.50 0.65219
50.00 0.63578
50.50 0.61994
51.00 0.60161
51.50 0.58287
52.00 0.56408
52.50 0.54856
53.00 0.53297
53.50 0.51662
54.00 0.49949
54.50 0.48229
55.00 0.46466
55.50 0.44526
56.00 0.42577
56.50 0.40618
57.00 0.38554
57.50 0.36438
58.00 0.34314
58.50 0.32181
59.00 0.30040
59.50 0.28044
60.00 0.26099
60.50 0.24148
61.00 0.22191
61.50 0.20229
62.00 0.18707
62.50 0.17342
63.00 0.15973
63.50 0.14601
64.00 0.13144
64.50 0.11618
65.00 0.10091
65.50 0.08940
66.00 0.08167
66.50 0.07392
67.00 0.06703
67.50 0.06052
68.00 0.05402
68.50 0.04752
69.00 0.04170
69.50 0.03790
70.00 0.03409
70.50 0.03028
71.00 0.02705
71.50 0.02449
72.00 0.02193
72.50 0.01938
73.00 0.01739
73.50 0.01570
74.00 0.01401
74.50 0.01232
75.00 0.01119
75.50 0.01019
76.00 0.00919
76.50 0.00820
77.00 0.00724
77.50 0.00642
78.00 0.00560
78.50 0.00512
79.00 0.00469
79.50 0.00428
80.00 0.00387
80.50 0.00347
81.00 0.00307
81.50 0.00267
82.00 0.00241
82.50 0.00220
83.00 0.00199
83.50 0.00179
84.00 0.00162
84.50 0.00145
85.00 0.00129
85.50 0.00121
86.00 0.00113
86.50 0.00105
87.00 0.00097
87.50 0.00090
88.00 0.00086
88.50 0.00083
89.00 0.00079
89.50 0.00076
90.00 0.00073
90.00 0.00073
90.50 0.00076
91.00 0.00079
91.50 0.00083
92.00 0.00086
92.50 0.00090
93.00 0.00097
93.50 0.00105
94.00 0.00113
94.50 0.00121
95.00 0.00129
95.50 0.00145
96.00 0.00162
96.50 0.00179
97.00 0.00199
97.50 0.00220
98.00 0.00241
98.50 0.00267
99.00 0.00307
99.50 0.00347
100.00 0.00387
100.50 0.00428
101.00 0.00469
101.50 0.00512
102.00 0.00560
102.50 0.00642
103.00 0.00724
103.50 0.00820
104.00 0.00919
104.50 0.01019
105.00 0.01119
105.50 0.01232
106.00 0.01401
106.50 0.01570
107.00 0.01739
107.50 0.01938
108.00 0.02193
108.50 0.02449
109.00 0.02705
109.50 0.03028
110.00 0.03409
110.50 0.03790
111.00 0.04170
111.50 0.04752
112.00 0.05402
112.50 0.06052
113.00 0.06703
113.50 0.07392
114.00 0.08167
114.50 0.08940
115.00 0.10091
115.50 0.11618
116.00 0.13144
116.50 0.14601
117.00 0.15973
117.50 0.17342
118.00 0.18707
118.50 0.20229
119.00 0.22191
119.50 0.24148
120.00 0.26099
120.50 0.28044
121.00 0.30040
121.50 0.32181
122.00 0.34314
122.50 0.36438
123.00 0.38554
123.50 0.40618
124.00 0.42577
124.50 0.44526
125.00 0.46466
125.50 0.48229
126.00 0.49949
126.50 0.51662
127.00 0.53297
127.50 0.54856
128.00 0.56408
128.50 0.58287
129.00 0.60161
129.50 0.61994
130.00 0.63578
130.50 0.65219
131.00 0.66958
131.50 0.68693
132.00 0.70396
132.50 0.72127
133.00 0.73871
133.50 0.75614
134.00 0.77358
134.50 0.79102
135.00 0.80856
135.50 0.82660
136.00 0.84460
136.50 0.86294
137.00 0.88172
137.50 0.90046
138.00 0.91875
138.50 0.93809
139.00 0.95790
139.50 0.97787
140.00 0.99803
140.50 1.01824
141.00 1.03925
141.50 1.06034
142.00 1.08147
142.50 1.10261
143.00 1.12260
143.50 1.14230
144.00 1.16202
144.50 1.18158
145.00 1.20104
145.50 1.22016
146.00 1.23928
146.50 1.25842
147.00 1.27675
147.50 1.29164
148.00 1.30656
148.50 1.32277
149.00 1.33941
149.50 1.35608
150.00 1.37278
150.50 1.38951
151.00 1.40459
151.50 1.41967
152.00 1.43418
152.50 1.44850
153.00 1.46286
153.50 1.47754
154.00 1.49225
154.50 1.50555
155.00 1.51833
155.50 1.53115
156.00 1.54167
156.50 1.55012
157.00 1.55860
157.50 1.56711
158.00 1.57539
158.50 1.58366
159.00 1.58934
159.50 1.59052
160.00 1.59340
160.50 1.59709
161.00 1.60083
161.50 1.60462
162.00 1.60847
162.50 1.61237
163.00 1.61601
163.50 1.61705
164.00 1.61834
164.50 1.61965
165.00 1.62102
165.50 1.62247
166.00 1.62400
166.50 1.62561
167.00 1.62729
167.50 1.62840
168.00 1.62851
168.50 1.62746
169.00 1.62528
169.50 1.62319
170.00 1.62274
170.50 1.62253
171.00 1.62129
171.50 1.61891
172.00 1.61665
172.50 1.61453
173.00 1.61314
173.50 1.61186
174.00 1.61071
174.50 1.60886
175.00 1.60713
175.50 1.60571
176.00 1.60474
176.50 1.60389
177.00 1.60317
177.50 1.60258
178.00 1.60222
178.50 1.60203
179.00 1.60198
179.50 1.60205
180.00 1.60225
180.00 1.60225
180.50 1.60205
181.00 1.60198
181.50 1.60203
182.00 1.60222
182.50 1.60258
183.00 1.60317
183.50 1.60389
184.00 1.60474
184.50 1.60571
185.00 1.60713
185.50 1.60886
186.00 1.61071
186.50 1.61186
187.00 1.61314
187.50 1.61453
188.00 1.61665
188.50 1.61891
189.00 1.62129
189.50 1.62253
190.00 1.62274
190.50 1.62319
191.00 1.62528
191.50 1.62746
192.00 1.62851
192.50 1.62840
193.00 1.62729
193.50 1.62561
194.00 1.62400
194.50 1.62247
195.00 1.62102
195.50 1.61965
196.00 1.61834
196.50 1.61705
197.00 1.61601
197.50 1.61237
198.00 1.60847
198.50 1.60462
199.00 1.60083
199.50 1.59709
200.00 1.59340
200.50 1.59052
201.00 1.58934
201.50 1.58366
202.00 1.57539
202.50 1.56711
203.00 1.55860
203.50 1.55012
204.00 1.54167
204.50 1.53115
205.00 1.51833
205.50 1.50555
206.00 1.49225
206.50 1.47754
207.00 1.46286
207.50 1.44850
208.00 1.43418
208.50 1.41967
209.00 1.40459
209.50 1.38951
210.00 1.37278
210.50 1.35608
211.00 1.33941
211.50 1.32277
212.00 1.30656
212.50 1.29164
213.00 1.27675
213.50 1.25842
214.00 1.23928
214.50 1.22016
215.00 1.20104
215.50 1.18158
216.00 1.16202
216.50 1.14230
217.00 1.12260
217.50 1.10261
218.00 1.08147
218.50 1.06034
219.00 1.03925
219.50 1.01824
220.00 0.99803
220.50 0.97787
221.00 0.95790
221.50 0.93809
222.00 0.91875
222.50 0.90046
223.00 0.88172
223.50 0.86294
224.00 0.84460
224.50 0.82660
225.00 0.80856
225.50 0.79102
226.00 0.77358
226.50 0.75614
227.00 0.73871
227.50 0.72127
228.00 0.70396
228.50 0.68693
229.00 0.66958
229.50 0.65219
230.00 0.63578
230.50 0.61994
231.00 0.60161
231.50 0.58287
232.00 0.56408
232.50 0.54856
233.00 0.53297
233.50 0.51662
234.00 0.49949
234.50 0.48229
235.00 0.46466
235.50 0.44526
236.00 0.42577
236.50 0.40618
237.00 0.38554
237.50 0.36438
238.00 0.34314
238.50 0.32181
239.00 0.30040
239.50 0.28044
240.00 0.26099
240.50 0.24148
241.00 0.22191
241.50 0.20229
242.00 0.18707
242.50 0.17342
243.00 0.15973
243.50 0.14601
244.00 0.13144
244.50 0.11618
245.00 0.10091
245.50 0.08940
246.00 0.08167
246.50 0.07392
247.00 0.06703
247.50 0.06052
248.00 0.05402
248.50 0.04752
249.00 0.04170
249.50 0.03790
250.00 0.03409
250.50 0.03028
251.00 0.02705
251.50 0.02449
252.00 0.02193
252.50 0.01938
253.00 0.01739
253.50 0.01570
254.00 0.01401
254.50 0.01232
255.00 0.01119
255.50 0.01019
256.00 0.00919
256.50 0.00820
257.00 0.00724
257.50 0.00642
258.00 0.00560
258.50 0.00512
259.00 0.00469
259.50 0.00428
260.00 0.00387
260.50 0.00347
261.00 0.00307
261.50 0.00267
262.00 0.00241
262.50 0.00220
263.00 0.00199
263.50 0.00179
264.00 0.00162
264.50 0.00145
265.00 0.00129
265.50 0.00121
266.00 0.00113
266.50 0.00105
267.00 0.00097
267.50 0.00090
268.00 0.00086
268.50 0.00083
269.00 0.00079
269.50 0.00076
270.00 0.00073
270.00 0.00073
270.50 0.00076
271.00 0.00079
271.50 0.00083
272.00 0.00086
272.50 0.00090
273.00 0.00097
273.50 0.00105
274.00 0.00113
274.50 0.00121
275.00 0.00129
275.50 0.00145
276.00 0.00162
276.50 0.00179
277.00 0.00199
277.50 0.00220
278.00 0.00241
278.50 0.00267
279.00 0.00307
279.50 0.00347
280.00 0.00387
280.50 0.00428
281.00 0.00469
281.50 0.00512
282.00 0.00560
282.50 0.00642
283.00 0.00724
283.50 0.00820
284.00 0.00919
284.50 0.01019
285.00 0.01119
285.50 0.01232
286.00 0.01401
286.50 0.01570
287.00 0.01739
287.50 0.01938
288.00 0.02193
288.50 0.02449
289.00 0.02705
289.50 0.03028
290.00 0.03409
290.50 0.03790
291.00 0.04170
291.50 0.04752
292.00 0.05402
292.50 0.06052
293.00 0.06703
293.50 0.07392
294.00 0.08167
294.50 0.08940
295.00 0.10091
295.50 0.11618
296.00 0.13144
296.50 0.14601
297.00 0.15973
297.50 0.17342
298.00 0.18707
298.50 0.20229
299.00 0.22191
299.50 0.24148
300.00 0.26099
300.50 0.28044
301.00 0.30040
301.50 0.32181
302.00 0.34314
302.50 0.36438
303.00 0.38554
303.50 0.40618
304.00 0.42577
304.50 0.44526
305.00 0.46466
305.50 0.48229
306.00 0.49949
306.50 0.51662
307.00 0.53297
307.50 0.54856
308.00 0.56408
308.50 0.58287
309.00 0.60161
309.50 0.61994
310.00 0.63578
310.50 0.65219
311.00 0.66958
311.50 0.68693
312.00 0.70396
312.50 0.72127
313.00 0.73871
313.50 0.75614
314.00 0.77358
314.50 0.79102
315.00 0.80856
315.50 0.82660
316.00 0.84460
316.50 0.86294
317.00 0.88172
317.50 0.90046
318.00 0.91875
318.50 0.93809
319.00 0.95790
319.50 0.97787
320.00 0.99803
320.50 1.01824
321.00 1.03925
321.50 1.06034
322.00 1.08147
322.50 1.10261
323.00 1.12260
323.50 1.14230
324.00 1.16202
324.50 1.18158
325.00 1.20104
325.50 1.22016
326.00 1.23928
326.50 1.25842
327.00 1.27675
327.50 1.29164
328.00 1.30656
328.50 1.32277
329.00 1.33941
329.50 1.35608
330.00 1.37278
330.50 1.38951
331.00 1.40459
331.50 1.41967
332.00 1.43418
332.50 1.44850
333.00 1.46286
333.50 1.47754
334.00 1.49225
334.50 1.50555
335.00 1.51833
335.50 1.53115
336.00 1.54167
336.50 1.55012
337.00 1.55860
337.50 1.56711
338.00 1.57539
338.50 1.58366
339.00 1.58934
339.50 1.59052
340.00 1.59340
340.50 1.59709
341.00 1.60083
341.50 1.60462
342.00 1.60847
342.50 1.61237
343.00 1.61601
343.50 1.61705
344.00 1.61834
344.50 1.61965
345.00 1.62102
345.50 1.62247
346.00 1.62400
346.50 1.62561
347.00 1.62729
347.50 1.62840
348.00 1.62851
348.50 1.62746
349.00 1.62528
349.50 1.62319
350.00 1.62274
350.50 1.62253
351.00 1.62129
351.50 1.61891
352.00 1.61665
352.50 1.61453
353.00 1.61314
353.50 1.61186
354.00 1.61071
354.50 1.60886
355.00 1.60713
355.50 1.60571
356.00 1.60474
356.50 1.60389
357.00 1.60317
357.50 1.60258
358.00 1.60222
358.50 1.60203
359.00 1.60198
359.50 1.60205
360.00 1.60225
