phi[deg] B[T]
0.00 1.70592
0.50 1.70504
1.00 1.70427
1.50 1.70363
2.00 1.70269
2.50 1.70195
3.00 1.70135
3.50 1.70044
4.00 1.69933
4.50 1.69908
5.00 1.69905
5.50 1.69931
6.00 1.69991
6.50 1.70066
7.00 1.70133
7.50 1.70211
8.00 1.70356
8.50 1.70581
9.00 1.70819
9.50 1.70976
10.00 1.71044
10.50 1.71125
11.00 1.71274
11.50 1.71435
12.00 1.71575
12.50 1.71462
13.00 1.71360
13.50 1.71262
14.00 1.71130
14.50 1.70992
15.00 1.70802
15.50 1.70618
16.00 1.70431
16.50 1.70253
17.00 1.70090
17.50 1.69942
18.00 1.69805
18.50 1.69678
19.00 1.69504
19.50 1.69130
20.00 1.68621
20.50 1.68406
21.00 1.68196
21.50 1.67992
22.00 1.67413
22.50 1.66392
23.00 1.65375
23.50 1.64473
24.00 1.63738
24.50 1.62054
25.00 1.60198
25.50 1.58581
26.00 1.56967
26.50 1.55357
27.00 1.53496
27.50 1.51507
28.00 1.49531
28.50 1.47672
29.00 1.45819
29.50 1.44013
30.00 1.42227
30.50 1.40450
31.00 1.38661
31.50 1.36819
32.00 1.34823
32.50 1.33060
33.00 1.31340
33.50 1.29625
34.00 1.27706
34.50 1.25627
35.00 1.23582
35.50 1.21588
36.00 1.19468
36.50 1.17181
37.00 1.14896
37.50 1.12551
38.00 1.10311
38.50 1.08083
39.00 1.05860
39.50 1.03609
40.00 1.01511
40.50 0.99424
41.00 0.97338
41.50 0.95282
42.00 0.93373
42.50 0.91455
43.00 0.89585
43.50 0.87806
44.00 0.86004
44.50 0.84253
45.00 0.82560
45.50 0.80927
46.00 0.79255
46.50 0.77637
47.00 0.76053
47.50 0.74503
48.00 0.72904
48.50 0.71450
49.00 0.69937
49.50 0.68276
50.00 0.66669
50.50 0.65326
51.00 0.63968
51.50 0.62260
52.00 0.60447
52.50 0.58627
53.00 0.57016
53.50 0.55584
54.00 0.53997
54.50 0.51925
55.00 0.49838
55.50 0.47736
56.00 0.45634
56.50 0.43587
57.00 0.41525
57.50 0.39111
58.00 0.36565
58.50 0.34002
59.00 0.31126
59.50 0.28080
60.00 0.25094
60.50 0.22925
61.00 0.20747
61.50 0.18561
62.00 0.15983
62.50 0.13371
63.00 0.11709
63.50 0.10059
64.00 0.08786
64.50 0.07521
65.00 0.06447
65.50 0.05654
66.00 0.04860
66.50 0.04064
67.00 0.03415
67.50 0.03031
68.00 0.02645
68.50 0.02254
69.00 0.01863
69.50 0.01640
70.00 0.01438
70.50 0.01230
71.00 0.01022
71.50 0.00881
72.00 0.00772
72.50 0.00662
73.00 0.00553
73.50 0.00477
74.00 0.00417
74.50 0.00363
75.00 0.00308
75.50 0.00260
76.00 0.00230
76.50 0.00199
77.00 0.00173
77.50 0.00150
78.00 0.00128
78.50 0.00115
79.00 0.00101
79.50 0.00088
80.00 0.00078
80.50 0.00068
81.00 0.00062
81.50 0.00056
82.00 0.00050
82.50 0.00044
83.00 0.00040
83.50 0.00037
84.00 0.00033
84.50 0.00030
85.00 0.00026
85.50 0.00024
86.00 0.00021
86.50 0.00018
87.00 0.00015
87.50 0.00013
88.00 0.00011
88.50 0.00008
89.00 0.00007
89.50 0.00006
90.00 0.00005
90.00 0.00005
90.50 0.00006
91.00 0.00007
91.50 0.00008
92.00 0.00011
92.50 0.00013
93.00 0.00015
93.50 0.00018
94.00 0.00021
94.50 0.00024
95.00 0.00026
95.50 0.00030
96.00 0.00033
96.50 0.00037
97.00 0.00040
97.50 0.00044
98.00 0.00050
98.50 0.00056
99.00 0.00062
99.50 0.00068
100.00 0.00078
100.50 0.00088
101.00 0.00101
101.50 0.00115
102.00 0.00128
102.50 0.00150
103.00 0.00173
103.50 0.00199
104.00 0.00230
104.50 0.00260
105.00 0.00308
105.50 0.00363
106.00 0.00417
106.50 0.00477
107.00 0.00553
107.50 0.00662
108.00 0.00772
108.50 0.00881
109.00 0.01022
109.50 0.01230
110.00 0.01438
110.50 0.01640
111.00 0.01863
111.50 0.02254
112.00 0.02645
112.50 0.03031
113.00 0.03415
113.50 0.04064
114.00 0.04860
114.50 0.05654
115.00 0.06447
115.50 0.07521
116.00 0.08786
116.50 0.10059
117.00 0.11709
117.50 0.13371
118.00 0.15983
118.50 0.18561
119.00 0.20747
119.50 0.22925
120.00 0.25094
120.50 0.28080
121.00 0.31126
121.50 0.34002
122.00 0.36565
122.50 0.39111
123.00 0.41525
123.50 0.43587
124.00 0.45634
124.50 0.47736
125.00 0.49838
125.50 0.51925
126.00 0.53997
126.50 0.55584
127.00 0.57016
127.50 0.58627
128.00 0.60447
128.50 0.62260
129.00 0.63968
129.50 0.65326
130.00 0.66669
130.50 0.68276
131.00 0.69937
131.50 0.71450
132.00 0.72904
132.50 0.74503
133.00 0.76053
133.50 0.77637
134.00 0.79255
134.50 0.80927
135.00 0.82560
135.50 0.84253
136.00 0.86004
136.50 0.87806
137.00 0.89585
137.50 0.91455
138.00 0.93373
138.50 0.95282
139.00 0.97338
139.50 0.99424
140.00 1.01511
140.50 1.03609
141.00 1.05860
141.50 1.08083
142.00 1.10311
142.50 1.12551
143.00 1.14896
143.50 1.17181
144.00 1.19468
144.50 1.21588
145.00 1.23582
145.50 1.25627
146.00 1.27706
146.50 1.29625
147.00 1.31340
147.50 1.33060
148.00 1.34823
148.50 1.36819
149.00 1.38661
149.50 1.40450
150.00 1.42227
150.50 1.44013
151.00 1.45819
151.50 1.47672
152.00 1.49531
152.50 1.51507
153.00 1.53496
153.50 1.55357
154.00 1.56967
154.50 1.58581
155.00 1.60198
155.50 1.62054
156.00 1.63738
156.50 1.64473
157.00 1.65375
157.50 1.66392
158.00 1.67413
158.50 1.67992
159.00 1.68196
159.50 1.68406
160.00 1.68621
160.50 1.69130
161.00 1.69504
161.50 1.69678
162.00 1.69805
162.50 1.69942
163.00 1.70090
163.50 1.70253
164.00 1.70431
164.50 1.70618
165.00 1.70802
165.50 1.70992
166.00 1.71130
166.50 1.71262
167.00 1.71360
167.50 1.71462
168.00 1.71575
168.50 1.71435
169.00 1.71274
169.50 1.71125
170.00 1.71044
170.50 1.70976
171.00 1.70819
171.50 1.70581
172.00 1.70356
172.50 1.70211
173.00 1.70133
173.50 1.70066
174.00 1.69991
174.50 1.69931
175.00 1.69905
175.50 1.69908
176.00 1.69933
176.50 1.70044
177.00 1.70135
177.50 1.70195
178.00 1.70269
178.50 1.70363
179.00 1.70427
179.50 1.70504
180.00 1.70592
180.00 1.70592
180.50 1.70504
181.00 1.70427
181.50 1.70363
182.00 1.70269
182.50 1.70195
183.00 1.70135
183.50 1.70044
184.00 1.69933
184.50 1.69908
185.00 1.69905
185.50 1.69931
186.00 1.69991
186.50 1.70066
187.00 1.70133
187.50 1.70211
188.00 1.70356
188.50 1.70581
189.00 1.70819
189.50 1.70976
190.00 1.71044
190.50 1.71125
191.00 1.71274
191.50 1.71435
192.00 1.71575
192.50 1.71462
193.00 1.71360
193.50 1.71262
194.00 1.71130
194.50 1.70992
195.00 1.70802
195.50 1.70618
196.00 1.70431
196.50 1.70253
197.00 1.70090
197.50 1.69942
198.00 1.69805
198.50 1.69678
199.00 1.69504
199.50 1.69130
200.00 1.68621
200.50 1.68406
201.00 1.68196
201.50 1.67992
202.00 1.67413
202.50 1.66392
203.00 1.65375
203.50 1.64473
204.00 1.63738
204.50 1.62054
205.00 1.60198
205.50 1.58581
206.00 1.56967
206.50 1.55357
207.00 1.53496
207.50 1.51507
208.00 1.49531
208.50 1.47672
209.00 1.45819
209.50 1.44013
210.00 1.42227
210.50 1.40450
211.00 1.38661
211.50 1.36819
212.00 1.34823
212.50 1.33060
213.00 1.31340
213.50 1.29625
214.00 1.27706
214.50 1.25627
215.00 1.23582
215.50 1.21588
216.00 1.19468
216.50 1.17181
217.00 1.14896
217.50 1.12551
218.00 1.10311
218.50 1.08083
219.00 1.05860
219.50 1.03609
220.00 1.01511
220.50 0.99424
221.00 0.97338
221.50 0.95282
222.00 0.93373
222.50 0.91455
223.00 0.89585
223.50 0.87806
224.00 0.86004
224.50 0.84253
225.00 0.82560
225.50 0.80927
226.00 0.79255
226.50 0.77637
227.00 0.76053
227.50 0.74503
228.00 0.72904
228.50 0.71450
229.00 0.69937
229.50 0.68276
230.00 0.66669
230.50 0.65326
231.00 0.63968
231.50 0.62260
232.00 0.60447
232.50 0.58627
233.00 0.57016
233.50 0.55584
234.00 0.53997
234.50 0.51925
235.00 0.49838
235.50 0.47736
236.00 0.45634
236.50 0.43587
237.00 0.41525
237.50 0.39111
238.00 0.36565
238.50 0.34002
239.00 0.31126
239.50 0.28080
240.00 0.25094
240.50 0.22925
241.00 0.20747
241.50 0.18561
242.00 0.15983
242.50 0.13371
243.00 0.11709
243.50 0.10059
244.00 0.08786
244.50 0.07521
245.00 0.06447
245.50 0.05654
246.00 0.04860
246.50 0.04064
247.00 0.03415
247.50 0.03031
248.00 0.02645
248.50 0.02254
249.00 0.01863
249.50 0.01640
250.00 0.01438
250.50 0.01230
251.00 0.01022
251.50 0.00881
252.00 0.00772
252.50 0.00662
253.00 0.00553
253.50 0.00477
254.00 0.00417
254.50 0.00363
255.00 0.00308
255.50 0.00260
256.00 0.00230
256.50 0.00199
257.00 0.00173
257.50 0.00150
258.00 0.00128
258.50 0.00115
259.00 0.00101
259.50 0.00088
260.00 0.00078
260.50 0.00068
261.00 0.00062
261.50 0.00056
262.00 0.00050
262.50 0.00044
263.00 0.00040
263.50 0.00037
264.00 0.00033
264.50 0.00030
265.00 0.00026
265.50 0.00024
266.00 0.00021
266.50 0.00018
267.00 0.00015
267.50 0.00013
268.00 0.00011
268.50 0.00008
269.00 0.00007
269.50 0.00006
270.00 0.00005
270.00 0.00005
270.50 0.00006
271.00 0.00007
271.50 0.00008
272.00 0.00011
272.50 0.00013
273.00 0.00015
273.50 0.00018
274.00 0.00021
274.50 0.00024
275.00 0.00026
275.50 0.00030
276.00 0.00033
276.50 0.00037
277.00 0.00040
277.50 0.00044
278.00 0.00050
278.50 0.00056
279.00 0.00062
279.50 0.00068
280.00 0.00078
280.50 0.00088
281.00 0.00101
281.50 0.00115
282.00 0.00128
282.50 0.00150
283.00 0.00173
283.50 0.00199
284.00 0.00230
284.50 0.00260
285.00 0.00308
285.50 0.00363
286.00 0.00417
286.50 0.00477
287.00 0.00553
287.50 0.00662
288.00 0.00772
288.50 0.00881
289.00 0.01022
289.50 0.01230
290.00 0.01438
290.50 0.01640
291.00 0.01863
291.50 0.02254
292.00 0.02645
292.50 0.03031
293.00 0.03415
293.50 0.04064
294.00 0.04860
294.50 0.05654
295.00 0.06447
295.50 0.07521
296.00 0.08786
296.50 0.10059
297.00 0.11709
297.50 0.13371
298.00 0.15983
298.50 0.18561
299.00 0.20747
299.50 0.22925
300.00 0.25094
300.50 0.28080
301.00 0.31126
301.50 0.34002
302.00 0.36565
302.50 0.39111
303.00 0.41525
303.50 0.43587
304.00 0.45634
304.50 0.47736
305.00 0.49838
305.50 0.51925
306.00 0.53997
306.50 0.55584
307.00 0.57016
307.50 0.58627
308.00 0.60447
308.50 0.62260
309.00 0.63968
309.50 0.65326
310.00 0.66669
310.50 0.68276
311.00 0.69937
311.50 0.71450
312.00 0.72904
312.50 0.74503
313.00 0.76053
313.50 0.77637
314.00 0.79255
314.50 0.80927
315.00 0.82560
315.50 0.84253
316.00 0.86004
316.50 0.87806
317.00 0.89585
317.50 0.91455
318.00 0.93373
318.50 0.95282
319.00 0.97338
319.50 0.99424
320.00 1.01511
320.50 1.03609
321.00 1.05860
321.50 1.08083
322.00 1.10311
322.50 1.12551
323.00 1.14896
323.50 1.17181
324.00 1.19468
324.50 1.21588
325.00 1.23582
325.50 1.25627
326.00 1.27706
326.50 1.29625
327.00 1.31340
327.50 1.33060
328.00 1.34823
328.50 1.36819
329.00 1.38661
329.50 1.40450
330.00 1.42227
330.50 1.44013
331.00 1.45819
331.50 1.47672
332.00 1.49531
332.50 1.51507
333.00 1.53496
333.50 1.55357
334.00 1.56967
334.50 1.58581
335.00 1.60198
335.50 1.62054
336.00 1.63738
336.50 1.64473
337.00 1.65375
337.50 1.66392
338.00 1.67413
338.50 1.67992
339.00 1.68196
339.50 1.68406
340.00 1.68621
340.50 1.69130
341.00 1.69504
341.50 1.69678
342.00 1.69805
342.50 1.69942
343.00 1.70090
343.50 1.70253
344.00 1.70431
344.50 1.70618
345.00 1.70802
345.50 1.70992
346.00 1.71130
346.50 1.71262
347.00 1.71360
347.50 1.71462
348.00 1.71575
348.50 1.71435
349.00 1.71274
349.50 1.71125
350.00 1.71044
350.50 1.70976
351.00 1.70819
351.50 1.70581
352.00 1.70356
352.50 1.70211
353.00 1.70133
353.50 1.70066
354.00 1.69991
354.50 1.69931
355.00 1.69905
355.50 1.69908
356.00 1.69933
356.50 1.70044
357.00 1.70135
357.50 1.70195
358.00 1.70269
358.50 1.70363
359.00 1.70427
359.50 1.70504
360.00 1.70592
