phi[deg] B[T]
0.00 1.16366
0.50 1.16252
1.00 1.16145
1.50 1.16042
2.00 1.15870
2.50 1.15708
3.00 1.15556
3.50 1.15462
4.00 1.15382
4.50 1.15270
5.00 1.15168
5.50 1.15133
6.00 1.15156
6.50 1.15212
7.00 1.15343
7.50 1.15483
8.00 1.15614
8.50 1.15751
9.00 1.15908
9.50 1.16217
10.00 1.16492
10.50 1.16737
11.00 1.16827
11.50 1.16920
12.00 1.16971
12.50 1.16808
13.00 1.16651
13.50 1.16514
14.00 1.16387
14.50 1.16185
15.00 1.15912
15.50 1.15660
16.00 1.15488
16.50 1.15325
17.00 1.15216
17.50 1.15137
18.00 1.15033
18.50 1.14887
19.00 1.14749
19.50 1.14826
20.00 1.14945
20.50 1.14798
21.00 1.14504
21.50 1.14214
22.00 1.13957
22.50 1.14118
23.00 1.13396
23.50 1.12673
24.00 1.11952
24.50 1.11230
25.00 1.09944
25.50 1.08478
26.00 1.07178
26.50 1.05902
27.00 1.04555
27.50 1.03012
28.00 1.01497
28.50 1.00141
29.00 0.98791
29.50 0.97447
30.00 0.96095
30.50 0.94859
31.00 0.93635
31.50 0.92378
32.00 0.91128
32.50 0.89931
33.00 0.88853
33.50 0.87748
34.00 0.86522
34.50 0.85301
35.00 0.84159
35.50 0.83099
36.00 0.81938
36.50 0.80676
37.00 0.79417
37.50 0.78209
38.00 0.77088
38.50 0.75896
39.00 0.74567
39.50 0.73224
40.00 0.71882
40.50 0.70534
41.00 0.69171
41.50 0.67710
42.00 0.66196
42.50 0.64690
43.00 0.63138
43.50 0.61525
44.00 0.59920
44.50 0.58245
45.00 0.56554
45.50 0.54805
46.00 0.53148
46.50 0.51496
47.00 0.49864
47.50 0.48413
48.00 0.47072
48.50 0.45933
49.00 0.44889
49.50 0.43974
50.00 0.43383
50.50 0.43095
51.00 0.42339
51.50 0.41584
52.00 0.40983
52.50 0.40704
53.00 0.40191
53.50 0.39276
54.00 0.38353
54.50 0.37487
55.00 0.36743
55.50 0.35694
56.00 0.34189
56.50 0.32670
57.00 0.31157
57.50 0.29636
58.00 0.27878
58.50 0.25873
59.00 0.23799
59.50 0.21213
60.00 0.18615
60.50 0.16610
61.00 0.14768
61.50 0.12879
62.00 0.10668
62.50 0.08854
63.00 0.07416
63.50 0.06381
64.00 0.05362
64.50 0.04405
65.00 0.03747
65.50 0.03088
66.00 0.02550
66.50 0.02099
67.00 0.01812
67.50 0.01524
68.00 0.01236
68.50 0.01040
69.00 0.00894
69.50 0.00746
70.00 0.00599
70.50 0.00522
71.00 0.00445
71.50 0.00366
72.00 0.00304
72.50 0.00264
73.00 0.00224
73.50 0.00184
74.00 0.00164
74.50 0.00144
75.00 0.00125
75.50 0.00107
76.00 0.00097
76.50 0.00089
77.00 0.00082
77.50 0.00075
78.00 0.00070
78.50 0.00064
79.00 0.00060
79.50 0.00058
80.00 0.00055
80.50 0.00052
81.00 0.00048
81.50 0.00046
82.00 0.00043
82.50 0.00041
83.00 0.00038
83.50 0.00035
84.00 0.00033
84.50 0.00030
85.00 0.00028
85.50 0.00026
86.00 0.00023
86.50 0.00021
87.00 0.00018
87.50 0.00016
88.00 0.00014
88.50 0.00012
89.00 0.00011
89.50 0.00010
90.00 0.00009
90.00 0.00009
90.50 0.00010
91.00 0.00011
91.50 0.00012
92.00 0.00014
92.50 0.00016
93.00 0.00018
93.50 0.00021
94.00 0.00023
94.50 0.00026
95.00 0.00028
95.50 0.00030
96.00 0.00033
96.50 0.00035
97.00 0.00038
97.50 0.00041
98.00 0.00043
98.50 0.00046
99.00 0.00048
99.50 0.00052
100.00 0.00055
100.50 0.00058
101.00 0.00060
101.50 0.00064
102.00 0.00070
102.50 0.00075
103.00 0.00082
103.50 0.00089
104.00 0.00097
104.50 0.00107
105.00 0.00125
105.50 0.00144
106.00 0.00164
106.50 0.00184
107.00 0.00224
107.50 0.00264
108.00 0.00304
108.50 0.00366
109.00 0.00445
109.50 0.00522
110.00 0.00599
110.50 0.00746
111.00 0.00894
111.50 0.01040
112.00 0.01236
112.50 0.01524
113.00 0.01812
113.50 0.02099
114.00 0.02550
114.50 0.03088
115.00 0.03747
115.50 0.04405
116.00 0.05362
116.50 0.06381
117.00 0.07416
117.50 0.08854
118.00 0.10668
118.50 0.12879
119.00 0.14768
119.50 0.16610
120.00 0.18615
120.50 0.21213
121.00 0.23799
121.50 0.25873
122.00 0.27878
122.50 0.29636
123.00 0.31157
123.50 0.32670
124.00 0.34189
124.50 0.35694
125.00 0.36743
125.50 0.37487
126.00 0.38353
126.50 0.39276
127.00 0.40191
127.50 0.40704
128.00 0.40983
128.50 0.41584
129.00 0.42339
129.50 0.43095
130.00 0.43383
130.50 0.43974
131.00 0.44889
131.50 0.45933
132.00 0.47072
132.50 0.48413
133.00 0.49864
133.50 0.51496
134.00 0.53148
134.50 0.54805
135.00 0.56554
135.50 0.58245
136.00 0.59920
136.50 0.61525
137.00 0.63138
137.50 0.64690
138.00 0.66196
138.50 0.67710
139.00 0.69171
139.50 0.70534
140.00 0.71882
140.50 0.73224
141.00 0.74567
141.50 0.75896
142.00 0.77088
142.50 0.78209
143.00 0.79417
143.50 0.80676
144.00 0.81938
144.50 0.83099
145.00 0.84159
145.50 0.85301
146.00 0.86522
146.50 0.87748
147.00 0.88853
147.50 0.89931
148.00 0.91128
148.50 0.92378
149.00 0.93635
149.50 0.94859
150.00 0.96095
150.50 0.97447
151.00 0.98791
151.50 1.00141
152.00 1.01497
152.50 1.03012
153.00 1.04555
153.50 1.05902
154.00 1.07178
154.50 1.08478
155.00 1.09944
155.50 1.11230
156.00 1.11952
156.50 1.12673
157.00 1.13396
157.50 1.14118
158.00 1.13957
158.50 1.14214
159.00 1.14504
159.50 1.14798
160.00 1.14945
160.50 1.14826
161.00 1.14749
161.50 1.14887
162.00 1.15033
162.50 1.15137
163.00 1.15216
163.50 1.15325
164.00 1.15488
164.50 1.15660
165.00 1.15912
165.50 1.16185
166.00 1.16387
166.50 1.16514
167.00 1.16651
167.50 1.16808
168.00 1.16971
168.50 1.16920
169.00 1.16827
169.50 1.16737
170.00 1.16492
170.50 1.16217
171.00 1.15908
171.50 1.15751
172.00 1.15614
172.50 1.15483
173.00 1.15343
173.50 1.15212
174.00 1.15156
174.50 1.15133
175.00 1.15168
175.50 1.15270
176.00 1.15382
176.50 1.15462
177.00 1.15556
177.50 1.15708
178.00 1.15870
178.50 1.16042
179.00 1.16145
179.50 1.16252
180.00 1.16366
180.00 1.16366
180.50 1.16252
181.00 1.16145
181.50 1.16042
182.00 1.15870
182.50 1.15708
183.00 1.15556
183.50 1.15462
184.00 1.15382
184.50 1.15270
185.00 1.15168
185.50 1.15133
186.00 1.15156
186.50 1.15212
187.00 1.15343
187.50 1.15483
188.00 1.15614
188.50 1.15751
189.00 1.15908
189.50 1.16217
190.00 1.16492
190.50 1.16737
191.00 1.16827
191.50 1.16920
192.00 1.16971
192.50 1.16808
193.00 1.16651
193.50 1.16514
194.00 1.16387
194.50 1.16185
195.00 1.15912
195.50 1.15660
196.00 1.15488
196.50 1.15325
197.00 1.15216
197.50 1.15137
198.00 1.15033
198.50 1.14887
199.00 1.14749
199.50 1.14826
200.00 1.14945
200.50 1.14798
201.00 1.14504
201.50 1.14214
202.00 1.13957
202.50 1.14118
203.00 1.13396
203.50 1.12673
204.00 1.11952
204.50 1.11230
205.00 1.09944
205.50 1.08478
206.00 1.07178
206.50 1.05902
207.00 1.04555
207.50 1.03012
208.00 1.01497
208.50 1.00141
209.00 0.98791
209.50 0.97447
210.00 0.96095
210.50 0.94859
211.00 0.93635
211.50 0.92378
212.00 0.91128
212.50 0.89931
213.00 0.88853
213.50 0.87748
214.00 0.86522
214.50 0.85301
215.00 0.84159
215.50 0.83099
216.00 0.81938
216.50 0.80676
217.00 0.79417
217.50 0.78209
218.00 0.77088
218.50 0.75896
219.00 0.74567
219.50 0.73224
220.00 0.71882
220.50 0.70534
221.00 0.69171
221.50 0.67710
222.00 0.66196
222.50 0.64690
223.00 0.63138
223.50 0.61525
224.00 0.59920
224.50 0.58245
225.00 0.56554
225.50 0.54805
226.00 0.53148
226.50 0.51496
227.00 0.49864
227.50 0.48413
228.00 0.47072
228.50 0.45933
229.00 0.44889
229.50 0.43974
230.00 0.43383
230.50 0.43095
231.00 0.42339
231.50 0.41584
232.00 0.40983
232.50 0.40704
233.00 0.40191
233.50 0.39276
234.00 0.38353
234.50 0.37487
235.00 0.36743
235.50 0.35694
236.00 0.34189
236.50 0.32670
237.00 0.31157
237.50 0.29636
238.00 0.27878
238.50 0.25873
239.00 0.23799
239.50 0.21213
240.00 0.18615
240.50 0.16610
241.00 0.14768
241.50 0.12879
242.00 0.10668
242.50 0.08854
243.00 0.07416
243.50 0.06381
244.00 0.05362
244.50 0.04405
245.00 0.03747
245.50 0.03088
246.00 0.02550
246.50 0.02099
247.00 0.01812
247.50 0.01524
248.00 0.01236
248.50 0.01040
249.00 0.00894
249.50 0.00746
250.00 0.00599
250.50 0.00522
251.00 0.00445
251.50 0.00366
252.00 0.00304
252.50 0.00264
253.00 0.00224
253.50 0.00184
254.00 0.00164
254.50 0.00144
255.00 0.00125
255.50 0.00107
256.00 0.00097
256.50 0.00089
257.00 0.00082
257.50 0.00075
258.00 0.00070
258.50 0.00064
259.00 0.00060
259.50 0.00058
260.00 0.00055
260.50 0.00052
261.00 0.00048
261.50 0.00046
262.00 0.00043
262.50 0.00041
263.00 0.00038
263.50 0.00035
264.00 0.00033
264.50 0.00030
265.00 0.00028
265.50 0.00026
266.00 0.00023
266.50 0.00021
267.00 0.00018
267.50 0.00016
268.00 0.00014
268.50 0.00012
269.00 0.00011
269.50 0.00010
270.00 0.00009
270.00 0.00009
270.50 0.00010
271.00 0.00011
271.50 0.00012
272.00 0.00014
272.50 0.00016
273.00 0.00018
273.50 0.00021
274.00 0.00023
274.50 0.00026
275.00 0.00028
275.50 0.00030
276.00 0.00033
276.50 0.00035
277.00 0.00038
277.50 0.00041
278.00 0.00043
278.50 0.00046
279.00 0.00048
279.50 0.00052
280.00 0.00055
280.50 0.00058
281.00 0.00060
281.50 0.00064
282.00 0.00070
282.50 0.00075
283.00 0.00082
283.50 0.00089
284.00 0.00097
284.50 0.00107
285.00 0.00125
285.50 0.00144
286.00 0.00164
286.50 0.00184
287.00 0.00224
287.50 0.00264
288.00 0.00304
288.50 0.00366
289.00 0.00445
289.50 0.00522
290.00 0.00599
290.50 0.00746
291.00 0.00894
291.50 0.01040
292.00 0.01236
292.50 0.01524
293.00 0.01812
293.50 0.02099
294.00 0.02550
294.50 0.03088
295.00 0.03747
295.50 0.04405
296.00 0.05362
296.50 0.06381
297.00 0.07416
297.50 0.08854
298.00 0.10668
298.50 0.12879
299.00 0.14768
299.50 0.16610
300.00 0.18615
300.50 0.21213
301.00 0.23799
301.50 0.25873
302.00 0.27878
302.50 0.29636
303.00 0.31157
303.50 0.32670
304.00 0.34189
304.50 0.35694
305.00 0.36743
305.50 0.37487
306.00 0.38353
306.50 0.39276
307.00 0.40191
307.50 0.40704
308.00 0.40983
308.50 0.41584
309.00 0.42339
309.50 0.43095
310.00 0.43383
310.50 0.43974
311.00 0.44889
311.50 0.45933
312.00 0.47072
312.50 0.48413
313.00 0.49864
313.50 0.51496
314.00 0.53148
314.50 0.54805
315.00 0.56554
315.50 0.58245
316.00 0.59920
316.50 0.61525
317.00 0.63138
317.50 0.64690
318.00 0.66196
318.50 0.67710
319.00 0.69171
319.50 0.70534
320.00 0.71882
320.50 0.73224
321.00 0.74567
321.50 0.75896
322.00 0.77088
322.50 0.78209
323.00 0.79417
323.50 0.80676
324.00 0.81938
324.50 0.83099
325.00 0.84159
325.50 0.85301
326.00 0.86522
326.50 0.87748
327.00 0.88853
327.50 0.89931
328.00 0.91128
328.50 0.92378
329.00 0.93635
329.50 0.94859
330.00 0.96095
330.50 0.97447
331.00 0.98791
331.50 1.00141
332.00 1.01497
332.50 1.03012
333.00 1.04555
333.50 1.05902
334.00 1.07178
334.50 1.08478
335.00 1.09944
335.50 1.11230
336.00 1.11952
336.50 1.12673
337.00 1.13396
337.50 1.14118
338.00 1.13957
338.50 1.14214
339.00 1.14504
339.50 1.14798
340.00 1.14945
340.50 1.14826
341.00 1.14749
341.50 1.14887
342.00 1.15033
342.50 1.15137
343.00 1.15216
343.50 1.15325
344.00 1.15488
344.50 1.15660
345.00 1.15912
345.50 1.16185
346.00 1.16387
346.50 1.16514
347.00 1.16651
347.50 1.16808
348.00 1.16971
348.50 1.16920
349.00 1.16827
349.50 1.16737
350.00 1.16492
350.50 1.16217
351.00 1.15908
351.50 1.15751
352.00 1.15614
352.50 1.15483
353.00 1.15343
353.50 1.15212
354.00 1.15156
354.50 1.15133
355.00 1.15168
355.50 1.15270
356.00 1.15382
356.50 1.15462
357.00 1.15556
357.50 1.15708
358.00 1.15870
358.50 1.16042
359.00 1.16145
359.50 1.16252
360.00 1.16366
