phi[deg] B[T]
0.00 1.55519
0.50 1.55422
1.00 1.55336
1.50 1.55261
2.00 1.55149
2.50 1.55058
3.00 1.54978
3.50 1.54860
4.00 1.54716
4.50 1.54673
5.00 1.54652
5.50 1.54658
6.00 1.54693
6.50 1.54742
7.00 1.54803
7.50 1.54877
8.00 1.55015
8.50 1.55231
9.00 1.55460
9.50 1.55622
10.00 1.55713
10.50 1.55815
11.00 1.55990
11.50 1.56175
12.00 1.56344
12.50 1.56296
13.00 1.56257
13.50 1.56224
14.00 1.56164
14.50 1.56104
15.00 1.56016
15.50 1.55932
16.00 1.55833
16.50 1.55745
17.00 1.55679
17.50 1.55641
18.00 1.55613
18.50 1.55594
19.00 1.55522
19.50 1.55247
20.00 1.54842
20.50 1.54730
21.00 1.54621
21.50 1.54517
22.00 1.54032
22.50 1.53098
23.00 1.52166
23.50 1.51345
24.00 1.50684
24.50 1.49044
25.00 1.47233
25.50 1.45692
26.00 1.44153
26.50 1.42618
27.00 1.40820
27.50 1.38887
28.00 1.36971
28.50 1.35211
29.00 1.33458
29.50 1.31756
30.00 1.30079
30.50 1.28408
31.00 1.26730
31.50 1.25012
32.00 1.23189
32.50 1.21573
33.00 1.19995
33.50 1.18422
34.00 1.16678
34.50 1.14799
35.00 1.12955
35.50 1.11159
36.00 1.09259
36.50 1.07218
37.00 1.05180
37.50 1.03093
38.00 1.01112
38.50 0.99141
39.00 0.97176
39.50 0.95203
40.00 0.93395
40.50 0.91571
41.00 0.89741
41.50 0.87944
42.00 0.86305
42.50 0.84628
43.00 0.83006
43.50 0.81453
44.00 0.79870
44.50 0.78298
45.00 0.76796
45.50 0.75304
46.00 0.73767
46.50 0.72221
47.00 0.70715
47.50 0.69183
48.00 0.67607
48.50 0.66109
49.00 0.64546
49.50 0.62869
50.00 0.61233
50.50 0.59776
51.00 0.58320
51.50 0.56603
52.00 0.54813
52.50 0.53016
53.00 0.51423
53.50 0.49980
54.00 0.48485
54.50 0.46541
55.00 0.44566
55.50 0.42580
56.00 0.40602
56.50 0.38731
57.00 0.36847
57.50 0.34660
58.00 0.32387
58.50 0.30099
59.00 0.27550
59.50 0.24844
60.00 0.22141
60.50 0.20221
61.00 0.18294
61.50 0.16359
62.00 0.14082
62.50 0.11800
63.00 0.10333
63.50 0.08876
64.00 0.07752
64.50 0.06633
65.00 0.05684
65.50 0.04985
66.00 0.04285
66.50 0.03583
67.00 0.03011
67.50 0.02673
68.00 0.02332
68.50 0.01987
69.00 0.01642
69.50 0.01446
70.00 0.01268
70.50 0.01084
71.00 0.00901
71.50 0.00776
72.00 0.00680
72.50 0.00584
73.00 0.00487
73.50 0.00420
74.00 0.00368
74.50 0.00320
75.00 0.00272
75.50 0.00230
76.00 0.00203
76.50 0.00176
77.00 0.00154
77.50 0.00134
78.00 0.00115
78.50 0.00103
79.00 0.00091
79.50 0.00079
80.00 0.00071
80.50 0.00063
81.00 0.00058
81.50 0.00052
82.00 0.00047
82.50 0.00042
83.00 0.00038
83.50 0.00035
84.00 0.00032
84.50 0.00029
85.00 0.00026
85.50 0.00023
86.00 0.00020
86.50 0.00018
87.00 0.00015
87.50 0.00012
88.00 0.00010
88.50 0.00007
89.00 0.00007
89.50 0.00006
90.00 0.00005
90.00 0.00005
90.50 0.00006
91.00 0.00007
91.50 0.00007
92.00 0.00010
92.50 0.00012
93.00 0.00015
93.50 0.00018
94.00 0.00020
94.50 0.00023
95.00 0.00026
95.50 0.00029
96.00 0.00032
96.50 0.00035
97.00 0.00038
97.50 0.00042
98.00 0.00047
98.50 0.00052
99.00 0.00058
99.50 0.00063
100.00 0.00071
100.50 0.00079
101.00 0.00091
101.50 0.00103
102.00 0.00115
102.50 0.00134
103.00 0.00154
103.50 0.00176
104.00 0.00203
104.50 0.00230
105.00 0.00272
105.50 0.00320
106.00 0.00368
106.50 0.00420
107.00 0.00487
107.50 0.00584
108.00 0.00680
108.50 0.00776
109.00 0.00901
109.50 0.01084
110.00 0.01268
110.50 0.01446
111.00 0.01642
111.50 0.01987
112.00 0.02332
112.50 0.02673
113.00 0.03011
113.50 0.03583
114.00 0.04285
114.50 0.04985
115.00 0.05684
115.50 0.06633
116.00 0.07752
116.50 0.08876
117.00 0.10333
117.50 0.11800
118.00 0.14082
118.50 0.16359
119.00 0.18294
119.50 0.20221
120.00 0.22141
120.50 0.24844
121.00 0.27550
121.50 0.30099
122.00 0.32387
122.50 0.34660
123.00 0.36847
123.50 0.38731
124.00 0.40602
124.50 0.42580
125.00 0.44566
125.50 0.46541
126.00 0.48485
126.50 0.49980
127.00 0.51423
127.50 0.53016
128.00 0.54813
128.50 0.56603
129.00 0.58320
129.50 0.59776
130.00 0.61233
130.50 0.62869
131.00 0.64546
131.50 0.66109
132.00 0.67607
132.50 0.69183
133.00 0.70715
133.50 0.72221
134.00 0.73767
134.50 0.75304
135.00 0.76796
135.50 0.78298
136.00 0.79870
136.50 0.81453
137.00 0.83006
137.50 0.84628
138.00 0.86305
138.50 0.87944
139.00 0.89741
139.50 0.91571
140.00 0.93395
140.50 0.95203
141.00 0.97176
141.50 0.99141
142.00 1.01112
142.50 1.03093
143.00 1.05180
143.50 1.07218
144.00 1.09259
144.50 1.11159
145.00 1.12955
145.50 1.14799
146.00 1.16678
146.50 1.18422
147.00 1.19995
147.50 1.21573
148.00 1.23189
148.50 1.25012
149.00 1.26730
149.50 1.28408
150.00 1.30079
150.50 1.31756
151.00 1.33458
151.50 1.35211
152.00 1.36971
152.50 1.38887
153.00 1.40820
153.50 1.42618
154.00 1.44153
154.50 1.45692
155.00 1.47233
155.50 1.49044
156.00 1.50684
156.50 1.51345
157.00 1.52166
157.50 1.53098
158.00 1.54032
158.50 1.54517
159.00 1.54621
159.50 1.54730
160.00 1.54842
160.50 1.55247
161.00 1.55522
161.50 1.55594
162.00 1.55613
162.50 1.55641
163.00 1.55679
163.50 1.55745
164.00 1.55833
164.50 1.55932
165.00 1.56016
165.50 1.56104
166.00 1.56164
166.50 1.56224
167.00 1.56257
167.50 1.56296
168.00 1.56344
168.50 1.56175
169.00 1.55990
169.50 1.55815
170.00 1.55713
170.50 1.55622
171.00 1.55460
171.50 1.55231
172.00 1.55015
172.50 1.54877
173.00 1.54803
173.50 1.54742
174.00 1.54693
174.50 1.54658
175.00 1.54652
175.50 1.54673
176.00 1.54716
176.50 1.54860
177.00 1.54978
177.50 1.55058
178.00 1.55149
178.50 1.55261
179.00 1.55336
179.50 1.55422
180.00 1.55519
180.00 1.55519
180.50 1.55422
181.00 1.55336
181.50 1.55261
182.00 1.55149
182.50 1.55058
183.00 1.54978
183.50 1.54860
184.00 1.54716
184.50 1.54673
185.00 1.54652
185.50 1.54658
186.00 1.54693
186.50 1.54742
187.00 1.54803
187.50 1.54877
188.00 1.55015
188.50 1.55231
189.00 1.55460
189.50 1.55622
190.00 1.55713
190.50 1.55815
191.00 1.55990
191.50 1.56175
192.00 1.56344
192.50 1.56296
193.00 1.56257
193.50 1.56224
194.00 1.56164
194.50 1.56104
195.00 1.56016
195.50 1.55932
196.00 1.55833
196.50 1.55745
197.00 1.55679
197.50 1.55641
198.00 1.55613
198.50 1.55594
199.00 1.55522
199.50 1.55247
200.00 1.54842
200.50 1.54730
201.00 1.54621
201.50 1.54517
202.00 1.54032
202.50 1.53098
203.00 1.52166
203.50 1.51345
204.00 1.50684
204.50 1.49044
205.00 1.47233
205.50 1.45692
206.00 1.44153
206.50 1.42618
207.00 1.40820
207.50 1.38887
208.00 1.36971
208.50 1.35211
209.00 1.33458
209.50 1.31756
210.00 1.30079
210.50 1.28408
211.00 1.26730
211.50 1.25012
212.00 1.23189
212.50 1.21573
213.00 1.19995
213.50 1.18422
214.00 1.16678
214.50 1.14799
215.00 1.12955
215.50 1.11159
216.00 1.09259
216.50 1.07218
217.00 1.05180
217.50 1.03093
218.00 1.01112
218.50 0.99141
219.00 0.97176
219.50 0.95203
220.00 0.93395
220.50 0.91571
221.00 0.89741
221.50 0.87944
222.00 0.86305
222.50 0.84628
223.00 0.83006
223.50 0.81453
224.00 0.79870
224.50 0.78298
225.00 0.76796
225.50 0.75304
226.00 0.73767
226.50 0.72221
227.00 0.70715
227.50 0.69183
228.00 0.67607
228.50 0.66109
229.00 0.64546
229.50 0.62869
230.00 0.61233
230.50 0.59776
231.00 0.58320
231.50 0.56603
232.00 0.54813
232.50 0.53016
233.00 0.51423
233.50 0.49980
234.00 0.48485
234.50 0.46541
235.00 0.44566
235.50 0.42580
236.00 0.40602
236.50 0.38731
237.00 0.36847
237.50 0.34660
238.00 0.32387
238.50 0.30099
239.00 0.27550
239.50 0.24844
240.00 0.22141
240.50 0.20221
241.00 0.18294
241.50 0.16359
242.00 0.14082
242.50 0.11800
243.00 0.10333
243.50 0.08876
244.00 0.07752
244.50 0.06633
245.00 0.05684
245.50 0.04985
246.00 0.04285
246.50 0.03583
247.00 0.03011
247.50 0.02673
248.00 0.02332
248.50 0.01987
249.00 0.01642
249.50 0.01446
250.00 0.01268
250.50 0.01084
251.00 0.00901
251.50 0.00776
252.00 0.00680
252.50 0.00584
253.00 0.00487
253.50 0.00420
254.00 0.00368
254.50 0.00320
255.00 0.00272
255.50 0.00230
256.00 0.00203
256.50 0.00176
257.00 0.00154
257.50 0.00134
258.00 0.00115
258.50 0.00103
259.00 0.00091
259.50 0.00079
260.00 0.00071
260.50 0.00063
261.00 0.00058
261.50 0.00052
262.00 0.00047
262.50 0.00042
263.00 0.00038
263.50 0.00035
264.00 0.00032
264.50 0.00029
265.00 0.00026
265.50 0.00023
266.00 0.00020
266.50 0.00018
267.00 0.00015
267.50 0.00012
268.00 0.00010
268.50 0.00007
269.00 0.00007
269.50 0.00006
270.00 0.00005
270.00 0.00005
270.50 0.00006
271.00 0.00007
271.50 0.00007
272.00 0.00010
272.50 0.00012
273.00 0.00015
273.50 0.00018
274.00 0.00020
274.50 0.00023
275.00 0.00026
275.50 0.00029
276.00 0.00032
276.50 0.00035
277.00 0.00038
277.50 0.00042
278.00 0.00047
278.50 0.00052
279.00 0.00058
279.50 0.00063
280.00 0.00071
280.50 0.00079
281.00 0.00091
281.50 0.00103
282.00 0.00115
282.50 0.00134
283.00 0.00154
283.50 0.00176
284.00 0.00203
284.50 0.00230
285.00 0.00272
285.50 0.00320
286.00 0.00368
286.50 0.00420
287.00 0.00487
287.50 0.00584
288.00 0.00680
288.50 0.00776
289.00 0.00901
289.50 0.01084
290.00 0.01268
290.50 0.01446
291.00 0.01642
291.50 0.01987
292.00 0.02332
292.50 0.02673
293.00 0.03011
293.50 0.03583
294.00 0.04285
294.50 0.04985
295.00 0.05684
295.50 0.06633
296.00 0.07752
296.50 0.08876
297.00 0.10333
297.50 0.11800
298.00 0.14082
298.50 0.16359
299.00 0.18294
299.50 0.20221
300.00 0.22141
300.50 0.24844
301.00 0.27550
301.50 0.30099
302.00 0.32387
302.50 0.34660
303.00 0.36847
303.50 0.38731
304.00 0.40602
304.50 0.42580
305.00 0.44566
305.50 0.46541
306.00 0.48485
306.50 0.49980
307.00 0.51423
307.50 0.53016
308.00 0.54813
308.50 0.56603
309.00 0.58320
309.50 0.59776
310.00 0.61233
310.50 0.62869
311.00 0.64546
311.50 0.66109
312.00 0.67607
312.50 0.69183
313.00 0.70715
313.50 0.72221
314.00 0.73767
314.50 0.75304
315.00 0.76796
315.50 0.78298
316.00 0.79870
316.50 0.81453
317.00 0.83006
317.50 0.84628
318.00 0.86305
318.50 0.87944
319.00 0.89741
319.50 0.91571
320.00 0.93395
320.50 0.95203
321.00 0.97176
321.50 0.99141
322.00 1.01112
322.50 1.03093
323.00 1.05180
323.50 1.07218
324.00 1.09259
324.50 1.11159
325.00 1.12955
325.50 1.14799
326.00 1.16678
326.50 1.18422
327.00 1.19995
327.50 1.21573
328.00 1.23189
328.50 1.25012
329.00 1.26730
329.50 1.28408
330.00 1.30079
330.50 1.31756
331.00 1.33458
331.50 1.35211
332.00 1.36971
332.50 1.38887
333.00 1.40820
333.50 1.42618
334.00 1.44153
334.50 1.45692
335.00 1.47233
335.50 1.49044
336.00 1.50684
336.50 1.51345
337.00 1.52166
337.50 1.53098
338.00 1.54032
338.50 1.54517
339.00 1.54621
339.50 1.54730
340.00 1.54842
340.50 1.55247
341.00 1.55522
341.50 1.55594
342.00 1.55613
342.50 1.55641
343.00 1.55679
343.50 1.55745
344.00 1.55833
344.50 1.55932
345.00 1.56016
345.50 1.56104
346.00 1.56164
346.50 1.56224
347.00 1.56257
347.50 1.56296
348.00 1.56344
348.50 1.56175
349.00 1.55990
349.50 1.55815
350.00 1.55713
350.50 1.55622
351.00 1.55460
351.50 1.55231
352.00 1.55015
352.50 1.54877
353.00 1.54803
353.50 1.54742
354.00 1.54693
354.50 1.54658
355.00 1.54652
355.50 1.54673
356.00 1.54716
356.50 1.54860
357.00 1.54978
357.50 1.55058
358.00 1.55149
358.50 1.55261
359.00 1.55336
359.50 1.55422
360.00 1.55519
