phi[deg] B[T]
0.00 1.97850
0.50 1.97838
1.00 1.97841
1.50 1.97859
2.00 1.97892
2.50 1.97948
3.00 1.97960
3.50 1.98053
4.00 1.98160
4.50 1.98281
5.00 1.98416
5.50 1.98564
6.00 1.98733
6.50 1.98915
7.00 1.99112
7.50 1.99170
8.00 1.99226
8.50 1.99328
9.00 1.99485
9.50 1.99654
10.00 1.99835
10.50 1.99773
11.00 1.99637
11.50 1.99569
12.00 1.99544
12.50 1.99530
13.00 1.99527
13.50 1.99511
14.00 1.99357
14.50 1.99118
15.00 1.98633
15.50 1.98217
16.00 1.97979
16.50 1.97748
17.00 1.97525
17.50 1.97197
18.00 1.96534
18.50 1.95877
19.00 1.95252
19.50 1.94861
20.00 1.94474
20.50 1.93912
21.00 1.93080
21.50 1.92251
22.00 1.91306
22.50 1.90216
23.00 1.89127
23.50 1.88040
24.00 1.86651
24.50 1.85194
25.00 1.83739
25.50 1.82272
26.00 1.80535
26.50 1.78843
27.00 1.77167
27.50 1.75493
28.00 1.73722
28.50 1.71828
29.00 1.69919
29.50 1.67905
30.00 1.65893
30.50 1.63884
31.00 1.61684
31.50 1.59383
32.00 1.57297
32.50 1.55210
33.00 1.53124
33.50 1.50911
34.00 1.48536
34.50 1.46159
35.00 1.43698
35.50 1.41145
36.00 1.38593
36.50 1.36040
37.00 1.33463
37.50 1.30827
38.00 1.28245
38.50 1.25664
39.00 1.23083
39.50 1.20486
40.00 1.17883
40.50 1.15380
41.00 1.12878
41.50 1.10375
42.00 1.07849
42.50 1.05422
43.00 1.03062
43.50 1.00713
44.00 0.98398
44.50 0.96083
45.00 0.93746
45.50 0.91510
46.00 0.89324
46.50 0.87137
47.00 0.85030
47.50 0.82991
48.00 0.80846
48.50 0.78621
49.00 0.76615
49.50 0.74639
50.00 0.72628
50.50 0.70502
51.00 0.68595
51.50 0.66682
52.00 0.64764
52.50 0.62830
53.00 0.60607
53.50 0.58558
54.00 0.56585
54.50 0.54604
55.00 0.52617
55.50 0.50602
56.00 0.48403
56.50 0.46411
57.00 0.44411
57.50 0.42403
58.00 0.40393
58.50 0.38461
59.00 0.36522
59.50 0.34389
60.00 0.32249
60.50 0.30103
61.00 0.27950
61.50 0.25840
62.00 0.24271
62.50 0.22719
63.00 0.21161
63.50 0.19599
64.00 0.18031
64.50 0.16388
65.00 0.15309
65.50 0.14251
66.00 0.13191
66.50 0.12126
67.00 0.11050
67.50 0.09972
68.00 0.09114
68.50 0.08520
69.00 0.07926
69.50 0.07331
70.00 0.06726
70.50 0.06119
71.00 0.05512
71.50 0.04942
72.00 0.04589
72.50 0.04259
73.00 0.03930
73.50 0.03601
74.00 0.03272
74.50 0.02944
75.00 0.02709
75.50 0.02527
76.00 0.02345
76.50 0.02164
77.00 0.01982
77.50 0.01794
78.00 0.01606
78.50 0.01484
79.00 0.01387
79.50 0.01290
80.00 0.01193
80.50 0.01096
81.00 0.00999
81.50 0.00904
82.00 0.00837
82.50 0.00781
83.00 0.00728
83.50 0.00676
84.00 0.00623
84.50 0.00576
85.00 0.00548
85.50 0.00521
86.00 0.00493
86.50 0.00464
87.00 0.00435
87.50 0.00425
88.00 0.00414
88.50 0.00402
89.00 0.00390
89.50 0.00379
90.00 0.00367
90.00 0.00367
90.50 0.00379
91.00 0.00390
91.50 0.00402
92.00 0.00414
92.50 0.00425
93.00 0.00435
93.50 0.00464
94.00 0.00493
94.50 0.00521
95.00 0.00548
95.50 0.00576
96.00 0.00623
96.50 0.00676
97.00 0.00728
97.50 0.00781
98.00 0.00837
98.50 0.00904
99.00 0.00999
99.50 0.01096
100.00 0.01193
100.50 0.01290
101.00 0.01387
101.50 0.01484
102.00 0.01606
102.50 0.01794
103.00 0.01982
103.50 0.02164
104.00 0.02345
104.50 0.02527
105.00 0.02709
105.50 0.02944
106.00 0.03272
106.50 0.03601
107.00 0.03930
107.50 0.04259
108.00 0.04589
108.50 0.04942
109.00 0.05512
109.50 0.06119
110.00 0.06726
110.50 0.07331
111.00 0.07926
111.50 0.08520
112.00 0.09114
112.50 0.09972
113.00 0.11050
113.50 0.12126
114.00 0.13191
114.50 0.14251
115.00 0.15309
115.50 0.16388
116.00 0.18031
116.50 0.19599
117.00 0.21161
117.50 0.22719
118.00 0.24271
118.50 0.25840
119.00 0.27950
119.50 0.30103
120.00 0.32249
120.50 0.34389
121.00 0.36522
121.50 0.38461
122.00 0.40393
122.50 0.42403
123.00 0.44411
123.50 0.46411
124.00 0.48403
124.50 0.50602
125.00 0.52617
125.50 0.54604
126.00 0.56585
126.50 0.58558
127.00 0.60607
127.50 0.62830
128.00 0.64764
128.50 0.66682
129.00 0.68595
129.50 0.70502
130.00 0.72628
130.50 0.74639
131.00 0.76615
131.50 0.78621
132.00 0.80846
132.50 0.82991
133.00 0.85030
133.50 0.87137
134.00 0.89324
134.50 0.91510
135.00 0.93746
135.50 0.96083
136.00 0.98398
136.50 1.00713
137.00 1.03062
137.50 1.05422
138.00 1.07849
138.50 1.10375
139.00 1.12878
139.50 1.15380
140.00 1.17883
140.50 1.20486
141.00 1.23083
141.50 1.25664
142.00 1.28245
142.50 1.30827
143.00 1.33463
143.50 1.36040
144.00 1.38593
144.50 1.41145
145.00 1.43698
145.50 1.46159
146.00 1.48536
146.50 1.50911
147.00 1.53124
147.50 1.55210
148.00 1.57297
148.50 1.59383
149.00 1.61684
149.50 1.63884
150.00 1.65893
150.50 1.67905
151.00 1.69919
151.50 1.71828
152.00 1.73722
152.50 1.75493
153.00 1.77167
153.50 1.78843
154.00 1.80535
154.50 1.82272
155.00 1.83739
155.50 1.85194
156.00 1.86651
156.50 1.88040
157.00 1.89127
157.50 1.90216
158.00 1.91306
158.50 1.92251
159.00 1.93080
159.50 1.93912
160.00 1.94474
160.50 1.94861
161.00 1.95252
161.50 1.95877
162.00 1.96534
162.50 1.97197
163.00 1.97525
163.50 1.97748
164.00 1.97979
164.50 1.98217
165.00 1.98633
165.50 1.99118
166.00 1.99357
166.50 1.99511
167.00 1.99527
167.50 1.99530
168.00 1.99544
168.50 1.99569
169.00 1.99637
169.50 1.99773
170.00 1.99835
170.50 1.99654
171.00 1.99485
171.50 1.99328
172.00 1.99226
172.50 1.99170
173.00 1.99112
173.50 1.98915
174.00 1.98733
174.50 1.98564
175.00 1.98416
175.50 1.98281
176.00 1.98160
176.50 1.98053
177.00 1.97960
177.50 1.97948
178.00 1.97892
178.50 1.97859
179.00 1.97841
179.50 1.97838
180.00 1.97850
180.00 1.97850
180.50 1.97838
181.00 1.97841
181.50 1.97859
182.00 1.97892
182.50 1.97948
183.00 1.97960
183.50 1.98053
184.00 1.98160
184.50 1.98281
185.00 1.98416
185.50 1.98564
186.00 1.98733
186.50 1.98915
187.00 1.99112
187.50 1.99170
188.00 1.99226
188.50 1.99328
189.00 1.99485
189.50 1.99654
190.00 1.99835
190.50 1.99773
191.00 1.99637
191.50 1.99569
192.00 1.99544
192.50 1.99530
193.00 1.99527
193.50 1.99511
194.00 1.99357
194.50 1.99118
195.00 1.98633
195.50 1.98217
196.00 1.97979
196.50 1.97748
197.00 1.97525
197.50 1.97197
198.00 1.96534
198.50 1.95877
199.00 1.95252
199.50 1.94861
200.00 1.94474
200.50 1.93912
201.00 1.93080
201.50 1.92251
202.00 1.91306
202.50 1.90216
203.00 1.89127
203.50 1.88040
204.00 1.86651
204.50 1.85194
205.00 1.83739
205.50 1.82272
206.00 1.80535
206.50 1.78843
207.00 1.77167
207.50 1.75493
208.00 1.73722
208.50 1.71828
209.00 1.69919
209.50 1.67905
210.00 1.65893
210.50 1.63884
211.00 1.61684
211.50 1.59383
212.00 1.57297
212.50 1.55210
213.00 1.53124
213.50 1.50911
214.00 1.48536
214.50 1.46159
215.00 1.43698
215.50 1.41145
216.00 1.38593
216.50 1.36040
217.00 1.33463
217.50 1.30827
218.00 1.28245
218.50 1.25664
219.00 1.23083
219.50 1.20486
220.00 1.17883
220.50 1.15380
221.00 1.12878
221.50 1.10375
222.00 1.07849
222.50 1.05422
223.00 1.03062
223.50 1.00713
224.00 0.98398
224.50 0.96083
225.00 0.93746
225.50 0.91510
226.00 0.89324
226.50 0.87137
227.00 0.85030
227.50 0.82991
228.00 0.80846
228.50 0.78621
229.00 0.76615
229.50 0.74639
230.00 0.72628
230.50 0.70502
231.00 0.68595
231.50 0.66682
232.00 0.64764
232.50 0.62830
233.00 0.60607
233.50 0.58558
234.00 0.56585
234.50 0.54604
235.00 0.52617
235.50 0.50602
236.00 0.48403
236.50 0.46411
237.00 0.44411
237.50 0.42403
238.00 0.40393
238.50 0.38461
239.00 0.36522
239.50 0.34389
240.00 0.32249
240.50 0.30103
241.00 0.27950
241.50 0.25840
242.00 0.24271
242.50 0.22719
243.00 0.21161
243.50 0.19599
244.00 0.18031
244.50 0.16388
245.00 0.15309
245.50 0.14251
246.00 0.13191
246.50 0.12126
247.00 0.11050
247.50 0.09972
248.00 0.09114
248.50 0.08520
249.00 0.07926
249.50 0.07331
250.00 0.06726
250.50 0.06119
251.00 0.05512
251.50 0.04942
252.00 0.04589
252.50 0.04259
253.00 0.03930
253.50 0.03601
254.00 0.03272
254.50 0.02944
255.00 0.02709
255.50 0.02527
256.00 0.02345
256.50 0.02164
257.00 0.01982
257.50 0.01794
258.00 0.01606
258.50 0.01484
259.00 0.01387
259.50 0.01290
260.00 0.01193
260.50 0.01096
261.00 0.00999
261.50 0.00904
262.00 0.00837
262.50 0.00781
263.00 0.00728
263.50 0.00676
264.00 0.00623
264.50 0.00576
265.00 0.00548
265.50 0.00521
266.00 0.00493
266.50 0.00464
267.00 0.00435
267.50 0.00425
268.00 0.00414
268.50 0.00402
269.00 0.00390
269.50 0.00379
270.00 0.00367
270.00 0.00367
270.50 0.00379
271.00 0.00390
271.50 0.00402
272.00 0.00414
272.50 0.00425
273.00 0.00435
273.50 0.00464
274.00 0.00493
274.50 0.00521
275.00 0.00548
275.50 0.00576
276.00 0.00623
276.50 0.00676
277.00 0.00728
277.50 0.00781
278.00 0.00837
278.50 0.00904
279.00 0.00999
279.50 0.01096
280.00 0.01193
280.50 0.01290
281.00 0.01387
281.50 0.01484
282.00 0.01606
282.50 0.01794
283.00 0.01982
283.50 0.02164
284.00 0.02345
284.50 0.02527
285.00 0.02709
285.50 0.02944
286.00 0.03272
286.50 0.03601
287.00 0.03930
287.50 0.04259
288.00 0.04589
288.50 0.04942
289.00 0.05512
289.50 0.06119
290.00 0.06726
290.50 0.07331
291.00 0.07926
291.50 0.08520
292.00 0.09114
292.50 0.09972
293.00 0.11050
293.50 0.12126
294.00 0.13191
294.50 0.14251
295.00 0.15309
295.50 0.16388
296.00 0.18031
296.50 0.19599
297.00 0.21161
297.50 0.22719
298.00 0.24271
298.50 0.25840
299.00 0.27950
299.50 0.30103
300.00 0.32249
300.50 0.34389
301.00 0.36522
301.50 0.38461
302.00 0.40393
302.50 0.42403
303.00 0.44411
303.50 0.46411
304.00 0.48403
304.50 0.50602
305.00 0.52617
305.50 0.54604
306.00 0.56585
306.50 0.58558
307.00 0.60607
307.50 0.62830
308.00 0.64764
308.50 0.66682
309.00 0.68595
309.50 0.70502
310.00 0.72628
310.50 0.74639
311.00 0.76615
311.50 0.78621
312.00 0.80846
312.50 0.82991
313.00 0.85030
313.50 0.87137
314.00 0.89324
314.50 0.91510
315.00 0.93746
315.50 0.96083
316.00 0.98398
316.50 1.00713
317.00 1.03062
317.50 1.05422
318.00 1.07849
318.50 1.10375
319.00 1.12878
319.50 1.15380
320.00 1.17883
320.50 1.20486
321.00 1.23083
321.50 1.25664
322.00 1.28245
322.50 1.30827
323.00 1.33463
323.50 1.36040
324.00 1.38593
324.50 1.41145
325.00 1.43698
325.50 1.46159
326.00 1.48536
326.50 1.50911
327.00 1.53124
327.50 1.55210
328.00 1.57297
328.50 1.59383
329.00 1.61684
329.50 1.63884
330.00 1.65893
330.50 1.67905
331.00 1.69919
331.50 1.71828
332.00 1.73722
332.50 1.75493
333.00 1.77167
333.50 1.78843
334.00 1.80535
334.50 1.82272
335.00 1.83739
335.50 1.85194
336.00 1.86651
336.50 1.88040
337.00 1.89127
337.50 1.90216
338.00 1.91306
338.50 1.92251
339.00 1.93080
339.50 1.93912
340.00 1.94474
340.50 1.94861
341.00 1.95252
341.50 1.95877
342.00 1.96534
342.50 1.97197
343.00 1.97525
343.50 1.97748
344.00 1.97979
344.50 1.98217
345.00 1.98633
345.50 1.99118
346.00 1.99357
346.50 1.99511
347.00 1.99527
347.50 1.99530
348.00 1.99544
348.50 1.99569
349.00 1.99637
349.50 1.99773
350.00 1.99835
350.50 1.99654
351.00 1.99485
351.50 1.99328
352.00 1.99226
352.50 1.99170
353.00 1.99112
353.50 1.98915
354.00 1.98733
354.50 1.98564
355.00 1.98416
355.50 1.98281
356.00 1.98160
356.50 1.98053
357.00 1.97960
357.50 1.97948
358.00 1.97892
358.50 1.97859
359.00 1.97841
359.50 1.97838
360.00 1.97850
