phi[deg] B[T]
0.00 1.57619
0.50 1.57577
1.00 1.57547
1.50 1.57529
2.00 1.57523
2.50 1.57528
3.00 1.57544
3.50 1.57571
4.00 1.57611
4.50 1.57663
5.00 1.57745
5.50 1.57849
6.00 1.57965
6.50 1.58026
7.00 1.58099
7.50 1.58183
8.00 1.58328
8.50 1.58487
9.00 1.58657
9.50 1.58719
10.00 1.58683
10.50 1.58669
11.00 1.58812
11.50 1.58964
12.00 1.59002
12.50 1.58924
13.00 1.58758
13.50 1.58541
14.00 1.58332
14.50 1.58131
15.00 1.57937
15.50 1.57751
16.00 1.57570
16.50 1.57387
17.00 1.57242
17.50 1.56852
18.00 1.56438
18.50 1.56030
19.00 1.55628
19.50 1.55230
20.00 1.54839
20.50 1.54528
21.00 1.54384
21.50 1.53817
22.00 1.53008
22.50 1.52198
23.00 1.51365
23.50 1.50534
24.00 1.49707
24.50 1.48689
25.00 1.47458
25.50 1.46232
26.00 1.44958
26.50 1.43551
27.00 1.42149
27.50 1.40781
28.00 1.39417
28.50 1.38039
29.00 1.36622
29.50 1.35203
30.00 1.33611
30.50 1.32023
31.00 1.30437
31.50 1.28855
32.00 1.27309
32.50 1.25915
33.00 1.24524
33.50 1.22798
34.00 1.20976
34.50 1.19154
35.00 1.17333
35.50 1.15475
36.00 1.13608
36.50 1.11721
37.00 1.09836
37.50 1.07931
38.00 1.05892
38.50 1.03855
39.00 1.01820
39.50 0.99842
40.00 0.97891
40.50 0.95948
41.00 0.94027
41.50 0.92108
42.00 0.90245
42.50 0.88421
43.00 0.86595
43.50 0.84769
44.00 0.82971
44.50 0.81184
45.00 0.79391
45.50 0.77625
46.00 0.75870
46.50 0.74113
47.00 0.72348
47.50 0.70582
48.00 0.68732
48.50 0.66967
49.00 0.65198
49.50 0.63506
50.00 0.61853
50.50 0.60049
51.00 0.58095
51.50 0.56136
52.00 0.54422
52.50 0.52788
53.00 0.51147
53.50 0.49431
54.00 0.47649
54.50 0.45859
55.00 0.44064
55.50 0.42102
56.00 0.40127
56.50 0.38184
57.00 0.36249
57.50 0.34306
58.00 0.32355
58.50 0.30396
59.00 0.28542
59.50 0.26681
60.00 0.24744
60.50 0.22801
61.00 0.20853
61.50 0.18899
62.00 0.17489
62.50 0.16201
63.00 0.14911
63.50 0.13617
64.00 0.12307
64.50 0.10888
65.00 0.09468
65.50 0.08345
66.00 0.07628
66.50 0.06909
67.00 0.06285
67.50 0.05674
68.00 0.05063
68.50 0.04453
69.00 0.03909
69.50 0.03551
70.00 0.03192
70.50 0.02832
71.00 0.02532
71.50 0.02292
72.00 0.02053
72.50 0.01814
73.00 0.01628
73.50 0.01469
74.00 0.01310
74.50 0.01150
75.00 0.01051
75.50 0.00957
76.00 0.00864
76.50 0.00770
77.00 0.00677
77.50 0.00600
78.00 0.00524
78.50 0.00479
79.00 0.00439
79.50 0.00401
80.00 0.00363
80.50 0.00325
81.00 0.00287
81.50 0.00249
82.00 0.00225
82.50 0.00205
83.00 0.00186
83.50 0.00167
84.00 0.00151
84.50 0.00135
85.00 0.00120
85.50 0.00113
86.00 0.00105
86.50 0.00098
87.00 0.00090
87.50 0.00083
88.00 0.00079
88.50 0.00076
89.00 0.00073
89.50 0.00070
90.00 0.00067
90.00 0.00067
90.50 0.00070
91.00 0.00073
91.50 0.00076
92.00 0.00079
92.50 0.00083
93.00 0.00090
93.50 0.00098
94.00 0.00105
94.50 0.00113
95.00 0.00120
95.50 0.00135
96.00 0.00151
96.50 0.00167
97.00 0.00186
97.50 0.00205
98.00 0.00225
98.50 0.00249
99.00 0.00287
99.50 0.00325
100.00 0.00363
100.50 0.00401
101.00 0.00439
101.50 0.00479
102.00 0.00524
102.50 0.00600
103.00 0.00677
103.50 0.00770
104.00 0.00864
104.50 0.00957
105.00 0.01051
105.50 0.01150
106.00 0.01310
106.50 0.01469
107.00 0.01628
107.50 0.01814
108.00 0.02053
108.50 0.02292
109.00 0.02532
109.50 0.02832
110.00 0.03192
110.50 0.03551
111.00 0.03909
111.50 0.04453
112.00 0.05063
112.50 0.05674
113.00 0.06285
113.50 0.06909
114.00 0.07628
114.50 0.08345
115.00 0.09468
115.50 0.10888
116.00 0.12307
116.50 0.13617
117.00 0.14911
117.50 0.16201
118.00 0.17489
118.50 0.18899
119.00 0.20853
119.50 0.22801
120.00 0.24744
120.50 0.26681
121.00 0.28542
121.50 0.30396
122.00 0.32355
122.50 0.34306
123.00 0.36249
123.50 0.38184
124.00 0.40127
124.50 0.42102
125.00 0.44064
125.50 0.45859
126.00 0.47649
126.50 0.49431
127.00 0.51147
127.50 0.52788
128.00 0.54422
128.50 0.56136
129.00 0.58095
129.50 0.60049
130.00 0.61853
130.50 0.63506
131.00 0.65198
131.50 0.66967
132.00 0.68732
132.50 0.70582
133.00 0.72348
133.50 0.74113
134.00 0.75870
134.50 0.77625
135.00 0.79391
135.50 0.81184
136.00 0.82971
136.50 0.84769
137.00 0.86595
137.50 0.88421
138.00 0.90245
138.50 0.92108
139.00 0.94027
139.50 0.95948
140.00 0.97891
140.50 0.99842
141.00 1.01820
141.50 1.03855
142.00 1.05892
142.50 1.07931
143.00 1.09836
143.50 1.11721
144.00 1.13608
144.50 1.15475
145.00 1.17333
145.50 1.19154
146.00 1.20976
146.50 1.22798
147.00 1.24524
147.50 1.25915
148.00 1.27309
148.50 1.28855
149.00 1.30437
149.50 1.32023
150.00 1.33611
150.50 1.35203
151.00 1.36622
151.50 1.38039
152.00 1.39417
152.50 1.40781
153.00 1.42149
153.50 1.43551
154.00 1.44958
154.50 1.46232
155.00 1.47458
155.50 1.48689
156.00 1.49707
156.50 1.50534
157.00 1.51365
157.50 1.52198
158.00 1.53008
158.50 1.53817
159.00 1.54384
159.50 1.54528
160.00 1.54839
160.50 1.55230
161.00 1.55628
161.50 1.56030
162.00 1.56438
162.50 1.56852
163.00 1.57242
163.50 1.57387
164.00 1.57570
164.50 1.57751
165.00 1.57937
165.50 1.58131
166.00 1.58332
166.50 1.58541
167.00 1.58758
167.50 1.58924
168.00 1.59002
168.50 1.58964
169.00 1.58812
169.50 1.58669
170.00 1.58683
170.50 1.58719
171.00 1.58657
171.50 1.58487
172.00 1.58328
172.50 1.58183
173.00 1.58099
173.50 1.58026
174.00 1.57965
174.50 1.57849
175.00 1.57745
175.50 1.57663
176.00 1.57611
176.50 1.57571
177.00 1.57544
177.50 1.57528
178.00 1.57523
178.50 1.57529
179.00 1.57547
179.50 1.57577
180.00 1.57619
180.00 1.57619
180.50 1.57577
181.00 1.57547
181.50 1.57529
182.00 1.57523
182.50 1.57528
183.00 1.57544
183.50 1.57571
184.00 1.57611
184.50 1.57663
185.00 1.57745
185.50 1.57849
186.00 1.57965
186.50 1.58026
187.00 1.58099
187.50 1.58183
188.00 1.58328
188.50 1.58487
189.00 1.58657
189.50 1.58719
190.00 1.58683
190.50 1.58669
191.00 1.58812
191.50 1.58964
192.00 1.59002
192.50 1.58924
193.00 1.58758
193.50 1.58541
194.00 1.58332
194.50 1.58131
195.00 1.57937
195.50 1.57751
196.00 1.57570
196.50 1.57387
197.00 1.57242
197.50 1.56852
198.00 1.56438
198.50 1.56030
199.00 1.55628
199.50 1.55230
200.00 1.54839
200.50 1.54528
201.00 1.54384
201.50 1.53817
202.00 1.53008
202.50 1.52198
203.00 1.51365
203.50 1.50534
204.00 1.49707
204.50 1.48689
205.00 1.47458
205.50 1.46232
206.00 1.44958
206.50 1.43551
207.00 1.42149
207.50 1.40781
208.00 1.39417
208.50 1.38039
209.00 1.36622
209.50 1.35203
210.00 1.33611
210.50 1.32023
211.00 1.30437
211.50 1.28855
212.00 1.27309
212.50 1.25915
213.00 1.24524
213.50 1.22798
214.00 1.20976
214.50 1.19154
215.00 1.17333
215.50 1.15475
216.00 1.13608
216.50 1.11721
217.00 1.09836
217.50 1.07931
218.00 1.05892
218.50 1.03855
219.00 1.01820
219.50 0.99842
220.00 0.97891
220.50 0.95948
221.00 0.94027
221.50 0.92108
222.00 0.90245
222.50 0.88421
223.00 0.86595
223.50 0.84769
224.00 0.82971
224.50 0.81184
225.00 0.79391
225.50 0.77625
226.00 0.75870
226.50 0.74113
227.00 0.72348
227.50 0.70582
228.00 0.68732
228.50 0.66967
229.00 0.65198
229.50 0.63506
230.00 0.61853
230.50 0.60049
231.00 0.58095
231.50 0.56136
232.00 0.54422
232.50 0.52788
233.00 0.51147
233.50 0.49431
234.00 0.47649
234.50 0.45859
235.00 0.44064
235.50 0.42102
236.00 0.40127
236.50 0.38184
237.00 0.36249
237.50 0.34306
238.00 0.32355
238.50 0.30396
239.00 0.28542
239.50 0.26681
240.00 0.24744
240.50 0.22801
241.00 0.20853
241.50 0.18899
242.00 0.17489
242.50 0.16201
243.00 0.14911
243.50 0.13617
244.00 0.12307
244.50 0.10888
245.00 0.09468
245.50 0.08345
246.00 0.07628
246.50 0.06909
247.00 0.06285
247.50 0.05674
248.00 0.05063
248.50 0.04453
249.00 0.03909
249.50 0.03551
250.00 0.03192
250.50 0.02832
251.00 0.02532
251.50 0.02292
252.00 0.02053
252.50 0.01814
253.00 0.01628
253.50 0.01469
254.00 0.01310
254.50 0.01150
255.00 0.01051
255.50 0.00957
256.00 0.00864
256.50 0.00770
257.00 0.00677
257.50 0.00600
258.00 0.00524
258.50 0.00479
259.00 0.00439
259.50 0.00401
260.00 0.00363
260.50 0.00325
261.00 0.00287
261.50 0.00249
262.00 0.00225
262.50 0.00205
263.00 0.00186
263.50 0.00167
264.00 0.00151
264.50 0.00135
265.00 0.00120
265.50 0.00113
266.00 0.00105
266.50 0.00098
267.00 0.00090
267.50 0.00083
268.00 0.00079
268.50 0.00076
269.00 0.00073
269.50 0.00070
270.00 0.00067
270.00 0.00067
270.50 0.00070
271.00 0.00073
271.50 0.00076
272.00 0.00079
272.50 0.00083
273.00 0.00090
273.50 0.00098
274.00 0.00105
274.50 0.00113
275.00 0.00120
275.50 0.00135
276.00 0.00151
276.50 0.00167
277.00 0.00186
277.50 0.00205
278.00 0.00225
278.50 0.00249
279.00 0.00287
279.50 0.00325
280.00 0.00363
280.50 0.00401
281.00 0.00439
281.50 0.00479
282.00 0.00524
282.50 0.00600
283.00 0.00677
283.50 0.00770
284.00 0.00864
284.50 0.00957
285.00 0.01051
285.50 0.01150
286.00 0.01310
286.50 0.01469
287.00 0.01628
287.50 0.01814
288.00 0.02053
288.50 0.02292
289.00 0.02532
289.50 0.02832
290.00 0.03192
290.50 0.03551
291.00 0.03909
291.50 0.04453
292.00 0.05063
292.50 0.05674
293.00 0.06285
293.50 0.06909
294.00 0.07628
294.50 0.08345
295.00 0.09468
295.50 0.10888
296.00 0.12307
296.50 0.13617
297.00 0.14911
297.50 0.16201
298.00 0.17489
298.50 0.18899
299.00 0.20853
299.50 0.22801
300.00 0.24744
300.50 0.26681
301.00 0.28542
301.50 0.30396
302.00 0.32355
302.50 0.34306
303.00 0.36249
303.50 0.38184
304.00 0.40127
304.50 0.42102
305.00 0.44064
305.50 0.45859
306.00 0.47649
306.50 0.49431
307.00 0.51147
307.50 0.52788
308.00 0.54422
308.50 0.56136
309.00 0.58095
309.50 0.60049
310.00 0.61853
310.50 0.63506
311.00 0.65198
311.50 0.66967
312.00 0.68732
312.50 0.70582
313.00 0.72348
313.50 0.74113
314.00 0.75870
314.50 0.77625
315.00 0.79391
315.50 0.81184
316.00 0.82971
316.50 0.84769
317.00 0.86595
317.50 0.88421
318.00 0.90245
318.50 0.92108
319.00 0.94027
319.50 0.95948
320.00 0.97891
320.50 0.99842
321.00 1.01820
321.50 1.03855
322.00 1.05892
322.50 1.07931
323.00 1.09836
323.50 1.11721
324.00 1.13608
324.50 1.15475
325.00 1.17333
325.50 1.19154
326.00 1.20976
326.50 1.22798
327.00 1.24524
327.50 1.25915
328.00 1.27309
328.50 1.28855
329.00 1.30437
329.50 1.32023
330.00 1.33611
330.50 1.35203
331.00 1.36622
331.50 1.38039
332.00 1.39417
332.50 1.40781
333.00 1.42149
333.50 1.43551
334.00 1.44958
334.50 1.46232
335.00 1.47458
335.50 1.48689
336.00 1.49707
336.50 1.50534
337.00 1.51365
337.50 1.52198
338.00 1.53008
338.50 1.53817
339.00 1.54384
339.50 1.54528
340.00 1.54839
340.50 1.55230
341.00 1.55628
341.50 1.56030
342.00 1.56438
342.50 1.56852
343.00 1.57242
343.50 1.57387
344.00 1.57570
344.50 1.57751
345.00 1.57937
345.50 1.58131
346.00 1.58332
346.50 1.58541
347.00 1.58758
347.50 1.58924
348.00 1.59002
348.50 1.58964
349.00 1.58812
349.50 1.58669
350.00 1.58683
350.50 1.58719
351.00 1.58657
351.50 1.58487
352.00 1.58328
352.50 1.58183
353.00 1.58099
353.50 1.58026
354.00 1.57965
354.50 1.57849
355.00 1.57745
355.50 1.57663
356.00 1.57611
356.50 1.57571
357.00 1.57544
357.50 1.57528
358.00 1.57523
358.50 1.57529
359.00 1.57547
359.50 1.57577
360.00 1.57619
