phi[deg] B[T]
0.00 1.32746
0.50 1.32738
1.00 1.32741
1.50 1.32753
2.00 1.32775
2.50 1.32762
3.00 1.32754
3.50 1.32754
4.00 1.32756
4.50 1.32745
5.00 1.32743
5.50 1.32750
6.00 1.32708
6.50 1.32684
7.00 1.32692
7.50 1.32708
8.00 1.32736
8.50 1.32780
9.00 1.32774
9.50 1.32698
10.00 1.32629
10.50 1.32568
11.00 1.32514
11.50 1.32469
12.00 1.32431
12.50 1.32408
13.00 1.32469
13.50 1.32331
14.00 1.32196
14.50 1.32065
15.00 1.31937
15.50 1.31812
16.00 1.31691
16.50 1.31666
17.00 1.31699
17.50 1.31353
18.00 1.31007
18.50 1.30662
19.00 1.30318
19.50 1.29942
20.00 1.29295
20.50 1.28649
21.00 1.28003
21.50 1.27357
22.00 1.26712
22.50 1.26070
23.00 1.24918
23.50 1.23556
24.00 1.22178
24.50 1.20784
25.00 1.19374
25.50 1.17947
26.00 1.16505
26.50 1.15047
27.00 1.13811
27.50 1.11665
28.00 1.09320
28.50 1.06948
29.00 1.04550
29.50 1.02126
30.00 0.99676
30.50 0.97142
31.00 0.94316
31.50 0.91305
32.00 0.87744
32.50 0.84157
33.00 0.80543
33.50 0.76817
34.00 0.72922
34.50 0.69423
35.00 0.65926
35.50 0.62408
36.00 0.58495
36.50 0.54312
37.00 0.50113
37.50 0.45983
38.00 0.42889
38.50 0.39784
39.00 0.36520
39.50 0.33230
40.00 0.29933
40.50 0.27337
41.00 0.25101
41.50 0.22860
42.00 0.20615
42.50 0.18344
43.00 0.16530
43.50 0.15102
44.00 0.13676
44.50 0.12249
45.00 0.10822
45.50 0.09915
46.00 0.09007
46.50 0.08097
47.00 0.07164
47.50 0.06472
48.00 0.05895
48.50 0.05323
49.00 0.04752
49.50 0.04183
50.00 0.03852
50.50 0.03520
51.00 0.03188
51.50 0.02854
52.00 0.02520
52.50 0.02250
53.00 0.02043
53.50 0.01874
54.00 0.01706
54.50 0.01538
55.00 0.01370
55.50 0.01198
56.00 0.01082
56.50 0.01001
57.00 0.00919
57.50 0.00837
58.00 0.00755
58.50 0.00672
59.00 0.00590
59.50 0.00536
60.00 0.00493
60.50 0.00450
61.00 0.00407
61.50 0.00363
62.00 0.00320
62.50 0.00281
63.00 0.00260
63.50 0.00239
64.00 0.00218
64.50 0.00196
65.00 0.00174
65.50 0.00158
66.00 0.00147
66.50 0.00136
67.00 0.00125
67.50 0.00114
68.00 0.00103
68.50 0.00092
69.00 0.00085
69.50 0.00080
70.00 0.00074
70.50 0.00069
71.00 0.00064
71.50 0.00059
72.00 0.00054
72.50 0.00049
73.00 0.00045
73.50 0.00043
74.00 0.00041
74.50 0.00039
75.00 0.00036
75.50 0.00034
76.00 0.00032
76.50 0.00030
77.00 0.00028
77.50 0.00027
78.00 0.00025
78.50 0.00024
79.00 0.00023
79.50 0.00021
80.00 0.00020
80.50 0.00019
81.00 0.00018
81.50 0.00017
82.00 0.00016
82.50 0.00015
83.00 0.00014
83.50 0.00013
84.00 0.00012
84.50 0.00011
85.00 0.00010
85.50 0.00009
86.00 0.00008
86.50 0.00007
87.00 0.00006
87.50 0.00005
88.00 0.00004
88.50 0.00004
89.00 0.00003
89.50 0.00003
90.00 0.00003
90.00 0.00003
90.50 0.00003
91.00 0.00003
91.50 0.00004
92.00 0.00004
92.50 0.00005
93.00 0.00006
93.50 0.00007
94.00 0.00008
94.50 0.00009
95.00 0.00010
95.50 0.00011
96.00 0.00012
96.50 0.00013
97.00 0.00014
97.50 0.00015
98.00 0.00016
98.50 0.00017
99.00 0.00018
99.50 0.00019
100.00 0.00020
100.50 0.00021
101.00 0.00023
101.50 0.00024
102.00 0.00025
102.50 0.00027
103.00 0.00028
103.50 0.00030
104.00 0.00032
104.50 0.00034
105.00 0.00036
105.50 0.00039
106.00 0.00041
106.50 0.00043
107.00 0.00045
107.50 0.00049
108.00 0.00054
108.50 0.00059
109.00 0.00064
109.50 0.00069
110.00 0.00074
110.50 0.00080
111.00 0.00085
111.50 0.00092
112.00 0.00103
112.50 0.00114
113.00 0.00125
113.50 0.00136
114.00 0.00147
114.50 0.00158
115.00 0.00174
115.50 0.00196
116.00 0.00218
116.50 0.00239
117.00 0.00260
117.50 0.00281
118.00 0.00320
118.50 0.00363
119.00 0.00407
119.50 0.00450
120.00 0.00493
120.50 0.00536
121.00 0.00590
121.50 0.00672
122.00 0.00755
122.50 0.00837
123.00 0.00919
123.50 0.01001
124.00 0.01082
124.50 0.01198
125.00 0.01370
125.50 0.01538
126.00 0.01706
126.50 0.01874
127.00 0.02043
127.50 0.02250
128.00 0.02520
128.50 0.02854
129.00 0.03188
129.50 0.03520
130.00 0.03852
130.50 0.04183
131.00 0.04752
131.50 0.05323
132.00 0.05895
132.50 0.06472
133.00 0.07164
133.50 0.08097
134.00 0.09007
134.50 0.09915
135.00 0.10822
135.50 0.12249
136.00 0.13676
136.50 0.15102
137.00 0.16530
137.50 0.18344
138.00 0.20615
138.50 0.22860
139.00 0.25101
139.50 0.27337
140.00 0.29933
140.50 0.33230
141.00 0.36520
141.50 0.39784
142.00 0.42889
142.50 0.45983
143.00 0.50113
143.50 0.54312
144.00 0.58495
144.50 0.62408
145.00 0.65926
145.50 0.69423
146.00 0.72922
146.50 0.76817
147.00 0.80543
147.50 0.84157
148.00 0.87744
148.50 0.91305
149.00 0.94316
149.50 0.97142
150.00 0.99676
150.50 1.02126
151.00 1.04550
151.50 1.06948
152.00 1.09320
152.50 1.11665
153.00 1.13811
153.50 1.15047
154.00 1.16505
154.50 1.17947
155.00 1.19374
155.50 1.20784
156.00 1.22178
156.50 1.23556
157.00 1.24918
157.50 1.26070
158.00 1.26712
158.50 1.27357
159.00 1.28003
159.50 1.28649
160.00 1.29295
160.50 1.29942
161.00 1.30318
161.50 1.30662
162.00 1.31007
162.50 1.31353
163.00 1.31699
163.50 1.31666
164.00 1.31691
164.50 1.31812
165.00 1.31937
165.50 1.32065
166.00 1.32196
166.50 1.32331
167.00 1.32469
167.50 1.32408
168.00 1.32431
168.50 1.32469
169.00 1.32514
169.50 1.32568
170.00 1.32629
170.50 1.32698
171.00 1.32774
171.50 1.32780
172.00 1.32736
172.50 1.32708
173.00 1.32692
173.50 1.32684
174.00 1.32708
174.50 1.32750
175.00 1.32743
175.50 1.32745
176.00 1.32756
176.50 1.32754
177.00 1.32754
177.50 1.32762
178.00 1.32775
178.50 1.32753
179.00 1.32741
179.50 1.32738
180.00 1.32746
180.00 1.32746
180.50 1.32738
181.00 1.32741
181.50 1.32753
182.00 1.32775
182.50 1.32762
183.00 1.32754
183.50 1.32754
184.00 1.32756
184.50 1.32745
185.00 1.32743
185.50 1.32750
186.00 1.32708
186.50 1.32684
187.00 1.32692
187.50 1.32708
188.00 1.32736
188.50 1.32780
189.00 1.32774
189.50 1.32698
190.00 1.32629
190.50 1.32568
191.00 1.32514
191.50 1.32469
192.00 1.32431
192.50 1.32408
193.00 1.32469
193.50 1.32331
194.00 1.32196
194.50 1.32065
195.00 1.31937
195.50 1.31812
196.00 1.31691
196.50 1.31666
197.00 1.31699
197.50 1.31353
198.00 1.31007
198.50 1.30662
199.00 1.30318
199.50 1.29942
200.00 1.29295
200.50 1.28649
201.00 1.28003
201.50 1.27357
202.00 1.26712
202.50 1.26070
203.00 1.24918
203.50 1.23556
204.00 1.22178
204.50 1.20784
205.00 1.19374
205.50 1.17947
206.00 1.16505
206.50 1.15047
207.00 1.13811
207.50 1.11665
208.00 1.09320
208.50 1.06948
209.00 1.04550
209.50 1.02126
210.00 0.99676
210.50 0.97142
211.00 0.94316
211.50 0.91305
212.00 0.87744
212.50 0.84157
213.00 0.80543
213.50 0.76817
214.00 0.72922
214.50 0.69423
215.00 0.65926
215.50 0.62408
216.00 0.58495
216.50 0.54312
217.00 0.50113
217.50 0.45983
218.00 0.42889
218.50 0.39784
219.00 0.36520
219.50 0.33230
220.00 0.29933
220.50 0.27337
221.00 0.25101
221.50 0.22860
222.00 0.20615
222.50 0.18344
223.00 0.16530
223.50 0.15102
224.00 0.13676
224.50 0.12249
225.00 0.10822
225.50 0.09915
226.00 0.09007
226.50 0.08097
227.00 0.07164
227.50 0.06472
228.00 0.05895
228.50 0.05323
229.00 0.04752
229.50 0.04183
230.00 0.03852
230.50 0.03520
231.00 0.03188
231.50 0.02854
232.00 0.02520
232.50 0.02250
233.00 0.02043
233.50 0.01874
234.00 0.01706
234.50 0.01538
235.00 0.01370
235.50 0.01198
236.00 0.01082
236.50 0.01001
237.00 0.00919
237.50 0.00837
238.00 0.00755
238.50 0.00672
239.00 0.00590
239.50 0.00536
240.00 0.00493
240.50 0.00450
241.00 0.00407
241.50 0.00363
242.00 0.00320
242.50 0.00281
243.00 0.00260
243.50 0.00239
244.00 0.00218
244.50 0.00196
245.00 0.00174
245.50 0.00158
246.00 0.00147
246.50 0.00136
247.00 0.00125
247.50 0.00114
248.00 0.00103
248.50 0.00092
249.00 0.00085
249.50 0.00080
250.00 0.00074
250.50 0.00069
251.00 0.00064
251.50 0.00059
252.00 0.00054
252.50 0.00049
253.00 0.00045
253.50 0.00043
254.00 0.00041
254.50 0.00039
255.00 0.00036
255.50 0.00034
256.00 0.00032
256.50 0.00030
257.00 0.00028
257.50 0.00027
258.00 0.00025
258.50 0.00024
259.00 0.00023
259.50 0.00021
260.00 0.00020
260.50 0.00019
261.00 0.00018
261.50 0.00017
262.00 0.00016
262.50 0.00015
263.00 0.00014
263.50 0.00013
264.00 0.00012
264.50 0.00011
265.00 0.00010
265.50 0.00009
266.00 0.00008
266.50 0.00007
267.00 0.00006
267.50 0.00005
268.00 0.00004
268.50 0.00004
269.00 0.00003
269.50 0.00003
270.00 0.00003
270.00 0.00003
270.50 0.00003
271.00 0.00003
271.50 0.00004
272.00 0.00004
272.50 0.00005
273.00 0.00006
273.50 0.00007
274.00 0.00008
274.50 0.00009
275.00 0.00010
275.50 0.00011
276.00 0.00012
276.50 0.00013
277.00 0.00014
277.50 0.00015
278.00 0.00016
278.50 0.00017
279.00 0.00018
279.50 0.00019
280.00 0.00020
280.50 0.00021
281.00 0.00023
281.50 0.00024
282.00 0.00025
282.50 0.00027
283.00 0.00028
283.50 0.00030
284.00 0.00032
284.50 0.00034
285.00 0.00036
285.50 0.00039
286.00 0.00041
286.50 0.00043
287.00 0.00045
287.50 0.00049
288.00 0.00054
288.50 0.00059
289.00 0.00064
289.50 0.00069
290.00 0.00074
290.50 0.00080
291.00 0.00085
291.50 0.00092
292.00 0.00103
292.50 0.00114
293.00 0.00125
293.50 0.00136
294.00 0.00147
294.50 0.00158
295.00 0.00174
295.50 0.00196
296.00 0.00218
296.50 0.00239
297.00 0.00260
297.50 0.00281
298.00 0.00320
298.50 0.00363
299.00 0.00407
299.50 0.00450
300.00 0.00493
300.50 0.00536
301.00 0.00590
301.50 0.00672
302.00 0.00755
302.50 0.00837
303.00 0.00919
303.50 0.01001
304.00 0.01082
304.50 0.01198
305.00 0.01370
305.50 0.01538
306.00 0.01706
306.50 0.01874
307.00 0.02043
307.50 0.02250
308.00 0.02520
308.50 0.02854
309.00 0.03188
309.50 0.03520
310.00 0.03852
310.50 0.04183
311.00 0.04752
311.50 0.05323
312.00 0.05895
312.50 0.06472
313.00 0.07164
313.50 0.08097
314.00 0.09007
314.50 0.09915
315.00 0.10822
315.50 0.12249
316.00 0.13676
316.50 0.15102
317.00 0.16530
317.50 0.18344
318.00 0.20615
318.50 0.22860
319.00 0.25101
319.50 0.27337
320.00 0.29933
320.50 0.33230
321.00 0.36520
321.50 0.39784
322.00 0.42889
322.50 0.45983
323.00 0.50113
323.50 0.54312
324.00 0.58495
324.50 0.62408
325.00 0.65926
325.50 0.69423
326.00 0.72922
326.50 0.76817
327.00 0.80543
327.50 0.84157
328.00 0.87744
328.50 0.91305
329.00 0.94316
329.50 0.97142
330.00 0.99676
330.50 1.02126
331.00 1.04550
331.50 1.06948
332.00 1.09320
332.50 1.11665
333.00 1.13811
333.50 1.15047
334.00 1.16505
334.50 1.17947
335.00 1.19374
335.50 1.20784
336.00 1.22178
336.50 1.23556
337.00 1.24918
337.50 1.26070
338.00 1.26712
338.50 1.27357
339.00 1.28003
339.50 1.28649
340.00 1.29295
340.50 1.29942
341.00 1.30318
341.50 1.30662
342.00 1.31007
342.50 1.31353
343.00 1.31699
343.50 1.31666
344.00 1.31691
344.50 1.31812
345.00 1.31937
345.50 1.32065
346.00 1.32196
346.50 1.32331
347.00 1.32469
347.50 1.32408
348.00 1.32431
348.50 1.32469
349.00 1.32514
349.50 1.32568
350.00 1.32629
350.50 1.32698
351.00 1.32774
351.50 1.32780
352.00 1.32736
352.50 1.32708
353.00 1.32692
353.50 1.32684
354.00 1.32708
354.50 1.32750
355.00 1.32743
355.50 1.32745
356.00 1.32756
356.50 1.32754
357.00 1.32754
357.50 1.32762
358.00 1.32775
358.50 1.32753
359.00 1.32741
359.50 1.32738
360.00 1.32746
