phi[deg] B[T]
0.00 1.97954
0.50 1.97952
1.00 1.97965
1.50 1.97994
2.00 1.98037
2.50 1.98103
3.00 1.98128
3.50 1.98239
4.00 1.98365
4.50 1.98504
5.00 1.98657
5.50 1.98824
6.00 1.99021
6.50 1.99231
7.00 1.99456
7.50 1.99534
8.00 1.99610
8.50 1.99733
9.00 1.99912
9.50 2.00104
10.00 2.00308
10.50 2.00264
11.00 2.00143
11.50 2.00085
12.00 2.00068
12.50 2.00061
13.00 2.00065
13.50 2.00057
14.00 1.99917
14.50 1.99689
15.00 1.99213
15.50 1.98802
16.00 1.98560
16.50 1.98325
17.00 1.98098
17.50 1.97771
18.00 1.97123
18.50 1.96480
19.00 1.95868
19.50 1.95475
20.00 1.95087
20.50 1.94531
21.00 1.93714
21.50 1.92901
22.00 1.91978
22.50 1.90918
23.00 1.89860
23.50 1.88804
24.00 1.87455
24.50 1.86041
25.00 1.84629
25.50 1.83206
26.00 1.81523
26.50 1.79884
27.00 1.78262
27.50 1.76642
28.00 1.74929
28.50 1.73095
29.00 1.71248
29.50 1.69304
30.00 1.67361
30.50 1.65421
31.00 1.63292
31.50 1.61061
32.00 1.59048
32.50 1.57035
33.00 1.55023
33.50 1.52883
34.00 1.50577
34.50 1.48271
35.00 1.45886
35.50 1.43414
36.00 1.40943
36.50 1.38473
37.00 1.35971
37.50 1.33396
38.00 1.30880
38.50 1.28365
39.00 1.25850
39.50 1.23314
40.00 1.20758
40.50 1.18305
41.00 1.15853
41.50 1.13400
42.00 1.10902
42.50 1.08507
43.00 1.06181
43.50 1.03862
44.00 1.01563
44.50 0.99263
45.00 0.96941
45.50 0.94706
46.00 0.92525
46.50 0.90341
47.00 0.88234
47.50 0.86189
48.00 0.84031
48.50 0.81787
49.00 0.79759
49.50 0.77761
50.00 0.75726
50.50 0.73566
51.00 0.71620
51.50 0.69669
52.00 0.67713
52.50 0.65739
53.00 0.63456
53.50 0.61345
54.00 0.59308
54.50 0.57264
55.00 0.55212
55.50 0.53131
56.00 0.50846
56.50 0.48771
57.00 0.46687
57.50 0.44594
58.00 0.42499
58.50 0.40484
59.00 0.38461
59.50 0.36219
60.00 0.33970
60.50 0.31714
61.00 0.29451
61.50 0.27233
62.00 0.25581
62.50 0.23947
63.00 0.22308
63.50 0.20663
64.00 0.19013
64.50 0.17279
65.00 0.16142
65.50 0.15026
66.00 0.13909
66.50 0.12786
67.00 0.11652
67.50 0.10516
68.00 0.09612
68.50 0.08985
69.00 0.08359
69.50 0.07731
70.00 0.07092
70.50 0.06452
71.00 0.05812
71.50 0.05211
72.00 0.04838
72.50 0.04491
73.00 0.04143
73.50 0.03796
74.00 0.03450
74.50 0.03104
75.00 0.02855
75.50 0.02663
76.00 0.02472
76.50 0.02281
77.00 0.02089
77.50 0.01891
78.00 0.01693
78.50 0.01564
79.00 0.01462
79.50 0.01360
80.00 0.01257
80.50 0.01155
81.00 0.01053
81.50 0.00953
82.00 0.00881
82.50 0.00823
83.00 0.00767
83.50 0.00712
84.00 0.00657
84.50 0.00607
85.00 0.00578
85.50 0.00549
86.00 0.00519
86.50 0.00489
87.00 0.00458
87.50 0.00448
88.00 0.00436
88.50 0.00424
89.00 0.00411
89.50 0.00399
90.00 0.00387
90.00 0.00387
90.50 0.00399
91.00 0.00411
91.50 0.00424
92.00 0.00436
92.50 0.00448
93.00 0.00458
93.50 0.00489
94.00 0.00519
94.50 0.00549
95.00 0.00578
95.50 0.00607
96.00 0.00657
96.50 0.00712
97.00 0.00767
97.50 0.00823
98.00 0.00881
98.50 0.00953
99.00 0.01053
99.50 0.01155
100.00 0.01257
100.50 0.01360
101.00 0.01462
101.50 0.01564
102.00 0.01693
102.50 0.01891
103.00 0.02089
103.50 0.02281
104.00 0.02472
104.50 0.02663
105.00 0.02855
105.50 0.03104
106.00 0.03450
106.50 0.03796
107.00 0.04143
107.50 0.04491
108.00 0.04838
108.50 0.05211
109.00 0.05812
109.50 0.06452
110.00 0.07092
110.50 0.07731
111.00 0.08359
111.50 0.08985
112.00 0.09612
112.50 0.10516
113.00 0.11652
113.50 0.12786
114.00 0.13909
114.50 0.15026
115.00 0.16142
115.50 0.17279
116.00 0.19013
116.50 0.20663
117.00 0.22308
117.50 0.23947
118.00 0.25581
118.50 0.27233
119.00 0.29451
119.50 0.31714
120.00 0.33970
120.50 0.36219
121.00 0.38461
121.50 0.40484
122.00 0.42499
122.50 0.44594
123.00 0.46687
123.50 0.48771
124.00 0.50846
124.50 0.53131
125.00 0.55212
125.50 0.57264
126.00 0.59308
126.50 0.61345
127.00 0.63456
127.50 0.65739
128.00 0.67713
128.50 0.69669
129.00 0.71620
129.50 0.73566
130.00 0.75726
130.50 0.77761
131.00 0.79759
131.50 0.81787
132.00 0.84031
132.50 0.86189
133.00 0.88234
133.50 0.90341
134.00 0.92525
134.50 0.94706
135.00 0.96941
135.50 0.99263
136.00 1.01563
136.50 1.03862
137.00 1.06181
137.50 1.08507
138.00 1.10902
138.50 1.13400
139.00 1.15853
139.50 1.18305
140.00 1.20758
140.50 1.23314
141.00 1.25850
141.50 1.28365
142.00 1.30880
142.50 1.33396
143.00 1.35971
143.50 1.38473
144.00 1.40943
144.50 1.43414
145.00 1.45886
145.50 1.48271
146.00 1.50577
146.50 1.52883
147.00 1.55023
147.50 1.57035
148.00 1.59048
148.50 1.61061
149.00 1.63292
149.50 1.65421
150.00 1.67361
150.50 1.69304
151.00 1.71248
151.50 1.73095
152.00 1.74929
152.50 1.76642
153.00 1.78262
153.50 1.79884
154.00 1.81523
154.50 1.83206
155.00 1.84629
155.50 1.86041
156.00 1.87455
156.50 1.88804
157.00 1.89860
157.50 1.90918
158.00 1.91978
158.50 1.92901
159.00 1.93714
159.50 1.94531
160.00 1.95087
160.50 1.95475
161.00 1.95868
161.50 1.96480
162.00 1.97123
162.50 1.97771
163.00 1.98098
163.50 1.98325
164.00 1.98560
164.50 1.98802
165.00 1.99213
165.50 1.99689
166.00 1.99917
166.50 2.00057
167.00 2.00065
167.50 2.00061
168.00 2.00068
168.50 2.00085
169.00 2.00143
169.50 2.00264
170.00 2.00308
170.50 2.00104
171.00 1.99912
171.50 1.99733
172.00 1.99610
172.50 1.99534
173.00 1.99456
173.50 1.99231
174.00 1.99021
174.50 1.98824
175.00 1.98657
175.50 1.98504
176.00 1.98365
176.50 1.98239
177.00 1.98128
177.50 1.98103
178.00 1.98037
178.50 1.97994
179.00 1.97965
179.50 1.97952
180.00 1.97954
180.00 1.97954
180.50 1.97952
181.00 1.97965
181.50 1.97994
182.00 1.98037
182.50 1.98103
183.00 1.98128
183.50 1.98239
184.00 1.98365
184.50 1.98504
185.00 1.98657
185.50 1.98824
186.00 1.99021
186.50 1.99231
187.00 1.99456
187.50 1.99534
188.00 1.99610
188.50 1.99733
189.00 1.99912
189.50 2.00104
190.00 2.00308
190.50 2.00264
191.00 2.00143
191.50 2.00085
192.00 2.00068
192.50 2.00061
193.00 2.00065
193.50 2.00057
194.00 1.99917
194.50 1.99689
195.00 1.99213
195.50 1.98802
196.00 1.98560
196.50 1.98325
197.00 1.98098
197.50 1.97771
198.00 1.97123
198.50 1.96480
199.00 1.95868
199.50 1.95475
200.00 1.95087
200.50 1.94531
201.00 1.93714
201.50 1.92901
202.00 1.91978
202.50 1.90918
203.00 1.89860
203.50 1.88804
204.00 1.87455
204.50 1.86041
205.00 1.84629
205.50 1.83206
206.00 1.81523
206.50 1.79884
207.00 1.78262
207.50 1.76642
208.00 1.74929
208.50 1.73095
209.00 1.71248
209.50 1.69304
210.00 1.67361
210.50 1.65421
211.00 1.63292
211.50 1.61061
212.00 1.59048
212.50 1.57035
213.00 1.55023
213.50 1.52883
214.00 1.50577
214.50 1.48271
215.00 1.45886
215.50 1.43414
216.00 1.40943
216.50 1.38473
217.00 1.35971
217.50 1.33396
218.00 1.30880
218.50 1.28365
219.00 1.25850
219.50 1.23314
220.00 1.20758
220.50 1.18305
221.00 1.15853
221.50 1.13400
222.00 1.10902
222.50 1.08507
223.00 1.06181
223.50 1.03862
224.00 1.01563
224.50 0.99263
225.00 0.96941
225.50 0.94706
226.00 0.92525
226.50 0.90341
227.00 0.88234
227.50 0.86189
228.00 0.84031
228.50 0.81787
229.00 0.79759
229.50 0.77761
230.00 0.75726
230.50 0.73566
231.00 0.71620
231.50 0.69669
232.00 0.67713
232.50 0.65739
233.00 0.63456
233.50 0.61345
234.00 0.59308
234.50 0.57264
235.00 0.55212
235.50 0.53131
236.00 0.50846
236.50 0.48771
237.00 0.46687
237.50 0.44594
238.00 0.42499
238.50 0.40484
239.00 0.38461
239.50 0.36219
240.00 0.33970
240.50 0.31714
241.00 0.29451
241.50 0.27233
242.00 0.25581
242.50 0.23947
243.00 0.22308
243.50 0.20663
244.00 0.19013
244.50 0.17279
245.00 0.16142
245.50 0.15026
246.00 0.13909
246.50 0.12786
247.00 0.11652
247.50 0.10516
248.00 0.09612
248.50 0.08985
249.00 0.08359
249.50 0.07731
250.00 0.07092
250.50 0.06452
251.00 0.05812
251.50 0.05211
252.00 0.04838
252.50 0.04491
253.00 0.04143
253.50 0.03796
254.00 0.03450
254.50 0.03104
255.00 0.02855
255.50 0.02663
256.00 0.02472
256.50 0.02281
257.00 0.02089
257.50 0.01891
258.00 0.01693
258.50 0.01564
259.00 0.01462
259.50 0.01360
260.00 0.01257
260.50 0.01155
261.00 0.01053
261.50 0.00953
262.00 0.00881
262.50 0.00823
263.00 0.00767
263.50 0.00712
264.00 0.00657
264.50 0.00607
265.00 0.00578
265.50 0.00549
266.00 0.00519
266.50 0.00489
267.00 0.00458
267.50 0.00448
268.00 0.00436
268.50 0.00424
269.00 0.00411
269.50 0.00399
270.00 0.00387
270.00 0.00387
270.50 0.00399
271.00 0.00411
271.50 0.00424
272.00 0.00436
272.50 0.00448
273.00 0.00458
273.50 0.00489
274.00 0.00519
274.50 0.00549
275.00 0.00578
275.50 0.00607
276.00 0.00657
276.50 0.00712
277.00 0.00767
277.50 0.00823
278.00 0.00881
278.50 0.00953
279.00 0.01053
279.50 0.01155
280.00 0.01257
280.50 0.01360
281.00 0.01462
281.50 0.01564
282.00 0.01693
282.50 0.01891
283.00 0.02089
283.50 0.02281
284.00 0.02472
284.50 0.02663
285.00 0.02855
285.50 0.03104
286.00 0.03450
286.50 0.03796
287.00 0.04143
287.50 0.04491
288.00 0.04838
288.50 0.05211
289.00 0.05812
289.50 0.06452
290.00 0.07092
290.50 0.07731
291.00 0.08359
291.50 0.08985
292.00 0.09612
292.50 0.10516
293.00 0.11652
293.50 0.12786
294.00 0.13909
294.50 0.15026
295.00 0.16142
295.50 0.17279
296.00 0.19013
296.50 0.20663
297.00 0.22308
297.50 0.23947
298.00 0.25581
298.50 0.27233
299.00 0.29451
299.50 0.31714
300.00 0.33970
300.50 0.36219
301.00 0.38461
301.50 0.40484
302.00 0.42499
302.50 0.44594
303.00 0.46687
303.50 0.48771
304.00 0.50846
304.50 0.53131
305.00 0.55212
305.50 0.57264
306.00 0.59308
306.50 0.61345
307.00 0.63456
307.50 0.65739
308.00 0.67713
308.50 0.69669
309.00 0.71620
309.50 0.73566
310.00 0.75726
310.50 0.77761
311.00 0.79759
311.50 0.81787
312.00 0.84031
312.50 0.86189
313.00 0.88234
313.50 0.90341
314.00 0.92525
314.50 0.94706
315.00 0.96941
315.50 0.99263
316.00 1.01563
316.50 1.03862
317.00 1.06181
317.50 1.08507
318.00 1.10902
318.50 1.13400
319.00 1.15853
319.50 1.18305
320.00 1.20758
320.50 1.23314
321.00 1.25850
321.50 1.28365
322.00 1.30880
322.50 1.33396
323.00 1.35971
323.50 1.38473
324.00 1.40943
324.50 1.43414
325.00 1.45886
325.50 1.48271
326.00 1.50577
326.50 1.52883
327.00 1.55023
327.50 1.57035
328.00 1.59048
328.50 1.61061
329.00 1.63292
329.50 1.65421
330.00 1.67361
330.50 1.69304
331.00 1.71248
331.50 1.73095
332.00 1.74929
332.50 1.76642
333.00 1.78262
333.50 1.79884
334.00 1.81523
334.50 1.83206
335.00 1.84629
335.50 1.86041
336.00 1.87455
336.50 1.88804
337.00 1.89860
337.50 1.90918
338.00 1.91978
338.50 1.92901
339.00 1.93714
339.50 1.94531
340.00 1.95087
340.50 1.95475
341.00 1.95868
341.50 1.96480
342.00 1.97123
342.50 1.97771
343.00 1.98098
343.50 1.98325
344.00 1.98560
344.50 1.98802
345.00 1.99213
345.50 1.99689
346.00 1.99917
346.50 2.00057
347.00 2.00065
347.50 2.00061
348.00 2.00068
348.50 2.00085
349.00 2.00143
349.50 2.00264
350.00 2.00308
350.50 2.00104
351.00 1.99912
351.50 1.99733
352.00 1.99610
352.50 1.99534
353.00 1.99456
353.50 1.99231
354.00 1.99021
354.50 1.98824
355.00 1.98657
355.50 1.98504
356.00 1.98365
356.50 1.98239
357.00 1.98128
357.50 1.98103
358.00 1.98037
358.50 1.97994
359.00 1.97965
359.50 1.97952
360.00 1.97954
