phi[deg] B[T]
0.00 1.68440
0.50 1.68397
1.00 1.68366
1.50 1.68348
2.00 1.68344
2.50 1.68350
3.00 1.68367
3.50 1.68398
4.00 1.68441
4.50 1.68497
5.00 1.68584
5.50 1.68694
6.00 1.68816
6.50 1.68875
7.00 1.68947
7.50 1.69032
8.00 1.69176
8.50 1.69335
9.00 1.69505
9.50 1.69559
10.00 1.69505
10.50 1.69476
11.00 1.69613
11.50 1.69760
12.00 1.69780
12.50 1.69672
13.00 1.69472
13.50 1.69219
14.00 1.68974
14.50 1.68737
15.00 1.68508
15.50 1.68288
16.00 1.68071
16.50 1.67842
17.00 1.67648
17.50 1.67211
18.00 1.66751
18.50 1.66297
19.00 1.65849
19.50 1.65407
20.00 1.64972
20.50 1.64617
21.00 1.64430
21.50 1.63818
22.00 1.62960
22.50 1.62103
23.00 1.61221
23.50 1.60342
24.00 1.59466
24.50 1.58399
25.00 1.57117
25.50 1.55840
26.00 1.54513
26.50 1.53048
27.00 1.51588
27.50 1.50167
28.00 1.48750
28.50 1.47320
29.00 1.45849
29.50 1.44378
30.00 1.42732
30.50 1.41090
31.00 1.39451
31.50 1.37816
32.00 1.36233
32.50 1.34807
33.00 1.33385
33.50 1.31600
34.00 1.29730
34.50 1.27862
35.00 1.25995
35.50 1.24144
36.00 1.22274
36.50 1.20337
37.00 1.18401
37.50 1.16438
38.00 1.14368
38.50 1.12299
39.00 1.10227
39.50 1.08090
40.00 1.06059
40.50 1.04032
41.00 1.01986
41.50 0.99927
42.00 0.97938
42.50 0.96000
43.00 0.94004
43.50 0.92004
44.00 0.90005
44.50 0.88005
45.00 0.86001
45.50 0.84011
46.00 0.82030
46.50 0.80031
47.00 0.77976
47.50 0.75918
48.00 0.73876
48.50 0.71847
49.00 0.69798
49.50 0.67743
50.00 0.65765
50.50 0.63834
51.00 0.61741
51.50 0.59621
52.00 0.57495
52.50 0.55658
53.00 0.53815
53.50 0.51958
54.00 0.50086
54.50 0.48207
55.00 0.46291
55.50 0.44229
56.00 0.42157
56.50 0.40077
57.00 0.37960
57.50 0.35821
58.00 0.33673
58.50 0.31518
59.00 0.29355
59.50 0.27365
60.00 0.25446
60.50 0.23522
61.00 0.21593
61.50 0.19659
62.00 0.18166
62.50 0.16830
63.00 0.15491
63.50 0.14149
64.00 0.12734
64.50 0.11258
65.00 0.09780
65.50 0.08668
66.00 0.07921
66.50 0.07173
67.00 0.06504
67.50 0.05872
68.00 0.05239
68.50 0.04607
69.00 0.04042
69.50 0.03674
70.00 0.03306
70.50 0.02937
71.00 0.02624
71.50 0.02375
72.00 0.02127
72.50 0.01879
73.00 0.01687
73.50 0.01523
74.00 0.01359
74.50 0.01195
75.00 0.01085
75.50 0.00989
76.00 0.00892
76.50 0.00796
77.00 0.00702
77.50 0.00623
78.00 0.00543
78.50 0.00496
79.00 0.00455
79.50 0.00415
80.00 0.00376
80.50 0.00337
81.00 0.00298
81.50 0.00259
82.00 0.00234
82.50 0.00214
83.00 0.00194
83.50 0.00173
84.00 0.00157
84.50 0.00141
85.00 0.00125
85.50 0.00118
86.00 0.00110
86.50 0.00102
87.00 0.00095
87.50 0.00087
88.00 0.00083
88.50 0.00080
89.00 0.00077
89.50 0.00074
90.00 0.00071
90.00 0.00071
90.50 0.00074
91.00 0.00077
91.50 0.00080
92.00 0.00083
92.50 0.00087
93.00 0.00095
93.50 0.00102
94.00 0.00110
94.50 0.00118
95.00 0.00125
95.50 0.00141
96.00 0.00157
96.50 0.00173
97.00 0.00194
97.50 0.00214
98.00 0.00234
98.50 0.00259
99.00 0.00298
99.50 0.00337
100.00 0.00376
100.50 0.00415
101.00 0.00455
101.50 0.00496
102.00 0.00543
102.50 0.00623
103.00 0.00702
103.50 0.00796
104.00 0.00892
104.50 0.00989
105.00 0.01085
105.50 0.01195
106.00 0.01359
106.50 0.01523
107.00 0.01687
107.50 0.01879
108.00 0.02127
108.50 0.02375
109.00 0.02624
109.50 0.02937
110.00 0.03306
110.50 0.03674
111.00 0.04042
111.50 0.04607
112.00 0.05239
112.50 0.05872
113.00 0.06504
113.50 0.07173
114.00 0.07921
114.50 0.08668
115.00 0.09780
115.50 0.11258
116.00 0.12734
116.50 0.14149
117.00 0.15491
117.50 0.16830
118.00 0.18166
118.50 0.19659
119.00 0.21593
119.50 0.23522
120.00 0.25446
120.50 0.27365
121.00 0.29355
121.50 0.31518
122.00 0.33673
122.50 0.35821
123.00 0.37960
123.50 0.40077
124.00 0.42157
124.50 0.44229
125.00 0.46291
125.50 0.48207
126.00 0.50086
126.50 0.51958
127.00 0.53815
127.50 0.55658
128.00 0.57495
128.50 0.59621
129.00 0.61741
129.50 0.63834
130.00 0.65765
130.50 0.67743
131.00 0.69798
131.50 0.71847
132.00 0.73876
132.50 0.75918
133.00 0.77976
133.50 0.80031
134.00 0.82030
134.50 0.84011
135.00 0.86001
135.50 0.88005
136.00 0.90005
136.50 0.92004
137.00 0.94004
137.50 0.96000
138.00 0.97938
138.50 0.99927
139.00 1.01986
139.50 1.04032
140.00 1.06059
140.50 1.08090
141.00 1.10227
141.50 1.12299
142.00 1.14368
142.50 1.16438
143.00 1.18401
143.50 1.20337
144.00 1.22274
144.50 1.24144
145.00 1.25995
145.50 1.27862
146.00 1.29730
146.50 1.31600
147.00 1.33385
147.50 1.34807
148.00 1.36233
148.50 1.37816
149.00 1.39451
149.50 1.41090
150.00 1.42732
150.50 1.44378
151.00 1.45849
151.50 1.47320
152.00 1.48750
152.50 1.50167
153.00 1.51588
153.50 1.53048
154.00 1.54513
154.50 1.55840
155.00 1.57117
155.50 1.58399
156.00 1.59466
156.50 1.60342
157.00 1.61221
157.50 1.62103
158.00 1.62960
158.50 1.63818
159.00 1.64430
159.50 1.64617
160.00 1.64972
160.50 1.65407
161.00 1.65849
161.50 1.66297
162.00 1.66751
162.50 1.67211
163.00 1.67648
163.50 1.67842
164.00 1.68071
164.50 1.68288
165.00 1.68508
165.50 1.68737
166.00 1.68974
166.50 1.69219
167.00 1.69472
167.50 1.69672
168.00 1.69780
168.50 1.69760
169.00 1.69613
169.50 1.69476
170.00 1.69505
170.50 1.69559
171.00 1.69505
171.50 1.69335
172.00 1.69176
172.50 1.69032
173.00 1.68947
173.50 1.68875
174.00 1.68816
174.50 1.68694
175.00 1.68584
175.50 1.68497
176.00 1.68441
176.50 1.68398
177.00 1.68367
177.50 1.68350
178.00 1.68344
178.50 1.68348
179.00 1.68366
179.50 1.68397
180.00 1.68440
180.00 1.68440
180.50 1.68397
181.00 1.68366
181.50 1.68348
182.00 1.68344
182.50 1.68350
183.00 1.68367
183.50 1.68398
184.00 1.68441
184.50 1.68497
185.00 1.68584
185.50 1.68694
186.00 1.68816
186.50 1.68875
187.00 1.68947
187.50 1.69032
188.00 1.69176
188.50 1.69335
189.00 1.69505
189.50 1.69559
190.00 1.69505
190.50 1.69476
191.00 1.69613
191.50 1.69760
192.00 1.69780
192.50 1.69672
193.00 1.69472
193.50 1.69219
194.00 1.68974
194.50 1.68737
195.00 1.68508
195.50 1.68288
196.00 1.68071
196.50 1.67842
197.00 1.67648
197.50 1.67211
198.00 1.66751
198.50 1.66297
199.00 1.65849
199.50 1.65407
200.00 1.64972
200.50 1.64617
201.00 1.64430
201.50 1.63818
202.00 1.62960
202.50 1.62103
203.00 1.61221
203.50 1.60342
204.00 1.59466
204.50 1.58399
205.00 1.57117
205.50 1.55840
206.00 1.54513
206.50 1.53048
207.00 1.51588
207.50 1.50167
208.00 1.48750
208.50 1.47320
209.00 1.45849
209.50 1.44378
210.00 1.42732
210.50 1.41090
211.00 1.39451
211.50 1.37816
212.00 1.36233
212.50 1.34807
213.00 1.33385
213.50 1.31600
214.00 1.29730
214.50 1.27862
215.00 1.25995
215.50 1.24144
216.00 1.22274
216.50 1.20337
217.00 1.18401
217.50 1.16438
218.00 1.14368
218.50 1.12299
219.00 1.10227
219.50 1.08090
220.00 1.06059
220.50 1.04032
221.00 1.01986
221.50 0.99927
222.00 0.97938
222.50 0.96000
223.00 0.94004
223.50 0.92004
224.00 0.90005
224.50 0.88005
225.00 0.86001
225.50 0.84011
226.00 0.82030
226.50 0.80031
227.00 0.77976
227.50 0.75918
228.00 0.73876
228.50 0.71847
229.00 0.69798
229.50 0.67743
230.00 0.65765
230.50 0.63834
231.00 0.61741
231.50 0.59621
232.00 0.57495
232.50 0.55658
233.00 0.53815
233.50 0.51958
234.00 0.50086
234.50 0.48207
235.00 0.46291
235.50 0.44229
236.00 0.42157
236.50 0.40077
237.00 0.37960
237.50 0.35821
238.00 0.33673
238.50 0.31518
239.00 0.29355
239.50 0.27365
240.00 0.25446
240.50 0.23522
241.00 0.21593
241.50 0.19659
242.00 0.18166
242.50 0.16830
243.00 0.15491
243.50 0.14149
244.00 0.12734
244.50 0.11258
245.00 0.09780
245.50 0.08668
246.00 0.07921
246.50 0.07173
247.00 0.06504
247.50 0.05872
248.00 0.05239
248.50 0.04607
249.00 0.04042
249.50 0.03674
250.00 0.03306
250.50 0.02937
251.00 0.02624
251.50 0.02375
252.00 0.02127
252.50 0.01879
253.00 0.01687
253.50 0.01523
254.00 0.01359
254.50 0.01195
255.00 0.01085
255.50 0.00989
256.00 0.00892
256.50 0.00796
257.00 0.00702
257.50 0.00623
258.00 0.00543
258.50 0.00496
259.00 0.00455
259.50 0.00415
260.00 0.00376
260.50 0.00337
261.00 0.00298
261.50 0.00259
262.00 0.00234
262.50 0.00214
263.00 0.00194
263.50 0.00173
264.00 0.00157
264.50 0.00141
265.00 0.00125
265.50 0.00118
266.00 0.00110
266.50 0.00102
267.00 0.00095
267.50 0.00087
268.00 0.00083
268.50 0.00080
269.00 0.00077
269.50 0.00074
270.00 0.00071
270.00 0.00071
270.50 0.00074
271.00 0.00077
271.50 0.00080
272.00 0.00083
272.50 0.00087
273.00 0.00095
273.50 0.00102
274.00 0.00110
274.50 0.00118
275.00 0.00125
275.50 0.00141
276.00 0.00157
276.50 0.00173
277.00 0.00194
277.50 0.00214
278.00 0.00234
278.50 0.00259
279.00 0.00298
279.50 0.00337
280.00 0.00376
280.50 0.00415
281.00 0.00455
281.50 0.00496
282.00 0.00543
282.50 0.00623
283.00 0.00702
283.50 0.00796
284.00 0.00892
284.50 0.00989
285.00 0.01085
285.50 0.01195
286.00 0.01359
286.50 0.01523
287.00 0.01687
287.50 0.01879
288.00 0.02127
288.50 0.02375
289.00 0.02624
289.50 0.02937
290.00 0.03306
290.50 0.03674
291.00 0.04042
291.50 0.04607
292.00 0.05239
292.50 0.05872
293.00 0.06504
293.50 0.07173
294.00 0.07921
294.50 0.08668
295.00 0.09780
295.50 0.11258
296.00 0.12734
296.50 0.14149
297.00 0.15491
297.50 0.16830
298.00 0.18166
298.50 0.19659
299.00 0.21593
299.50 0.23522
300.00 0.25446
300.50 0.27365
301.00 0.29355
301.50 0.31518
302.00 0.33673
302.50 0.35821
303.00 0.37960
303.50 0.40077
304.00 0.42157
304.50 0.44229
305.00 0.46291
305.50 0.48207
306.00 0.50086
306.50 0.51958
307.00 0.53815
307.50 0.55658
308.00 0.57495
308.50 0.59621
309.00 0.61741
309.50 0.63834
310.00 0.65765
310.50 0.67743
311.00 0.69798
311.50 0.71847
312.00 0.73876
312.50 0.75918
313.00 0.77976
313.50 0.80031
314.00 0.82030
314.50 0.84011
315.00 0.86001
315.50 0.88005
316.00 0.90005
316.50 0.92004
317.00 0.94004
317.50 0.96000
318.00 0.97938
318.50 0.99927
319.00 1.01986
319.50 1.04032
320.00 1.06059
320.50 1.08090
321.00 1.10227
321.50 1.12299
322.00 1.14368
322.50 1.16438
323.00 1.18401
323.50 1.20337
324.00 1.22274
324.50 1.24144
325.00 1.25995
325.50 1.27862
326.00 1.29730
326.50 1.31600
327.00 1.33385
327.50 1.34807
328.00 1.36233
328.50 1.37816
329.00 1.39451
329.50 1.41090
330.00 1.42732
330.50 1.44378
331.00 1.45849
331.50 1.47320
332.00 1.48750
332.50 1.50167
333.00 1.51588
333.50 1.53048
334.00 1.54513
334.50 1.55840
335.00 1.57117
335.50 1.58399
336.00 1.59466
336.50 1.60342
337.00 1.61221
337.50 1.62103
338.00 1.62960
338.50 1.63818
339.00 1.64430
339.50 1.64617
340.00 1.64972
340.50 1.65407
341.00 1.65849
341.50 1.66297
342.00 1.66751
342.50 1.67211
343.00 1.67648
343.50 1.67842
344.00 1.68071
344.50 1.68288
345.00 1.68508
345.50 1.68737
346.00 1.68974
346.50 1.69219
347.00 1.69472
347.50 1.69672
348.00 1.69780
348.50 1.69760
349.00 1.69613
349.50 1.69476
350.00 1.69505
350.50 1.69559
351.00 1.69505
351.50 1.69335
352.00 1.69176
352.50 1.69032
353.00 1.68947
353.50 1.68875
354.00 1.68816
354.50 1.68694
355.00 1.68584
355.50 1.68497
356.00 1.68441
356.50 1.68398
357.00 1.68367
357.50 1.68350
358.00 1.68344
358.50 1.68348
359.00 1.68366
359.50 1.68397
360.00 1.68440
