phi[deg] B[T]
0.00 1.53474
0.50 1.53409
1.00 1.53357
1.50 1.53315
2.00 1.53276
2.50 1.53231
3.00 1.53198
3.50 1.53177
4.00 1.53170
4.50 1.53185
5.00 1.53213
5.50 1.53276
6.00 1.53362
6.50 1.53461
7.00 1.53540
7.50 1.53623
8.00 1.53718
8.50 1.53824
9.00 1.54073
9.50 1.54320
10.00 1.54500
10.50 1.54589
11.00 1.54627
11.50 1.54675
12.00 1.54730
12.50 1.54638
13.00 1.54506
13.50 1.54372
14.00 1.54187
14.50 1.54011
15.00 1.53845
15.50 1.53643
16.00 1.53434
16.50 1.53230
17.00 1.52922
17.50 1.52623
18.00 1.52333
18.50 1.52106
19.00 1.52002
19.50 1.51862
20.00 1.51709
20.50 1.51242
21.00 1.50758
21.50 1.50278
22.00 1.49777
22.50 1.49172
23.00 1.48571
23.50 1.47737
24.00 1.46656
24.50 1.45577
25.00 1.44381
25.50 1.42892
26.00 1.41408
26.50 1.39900
27.00 1.38361
27.50 1.36827
28.00 1.35298
28.50 1.33736
29.00 1.32134
29.50 1.30650
30.00 1.29129
30.50 1.27517
31.00 1.25910
31.50 1.24308
32.00 1.22711
32.50 1.21297
33.00 1.19889
33.50 1.18236
34.00 1.16417
34.50 1.14601
35.00 1.12788
35.50 1.11052
36.00 1.09372
36.50 1.07414
37.00 1.05310
37.50 1.03234
38.00 1.01247
38.50 0.99259
39.00 0.97214
39.50 0.95174
40.00 0.93138
40.50 0.91116
41.00 0.89158
41.50 0.87230
42.00 0.85308
42.50 0.83401
43.00 0.81582
43.50 0.79771
44.00 0.78015
44.50 0.76297
45.00 0.74586
45.50 0.72998
46.00 0.71411
46.50 0.69932
47.00 0.68564
47.50 0.67120
48.00 0.65876
48.50 0.64704
49.00 0.63474
49.50 0.62210
50.00 0.61019
50.50 0.59957
51.00 0.59237
51.50 0.58107
52.00 0.56740
52.50 0.55365
53.00 0.53982
53.50 0.52673
54.00 0.51712
54.50 0.50313
55.00 0.48436
55.50 0.46542
56.00 0.44632
56.50 0.42705
57.00 0.40887
57.50 0.39217
58.00 0.36325
58.50 0.33810
59.00 0.31523
59.50 0.29223
60.00 0.26807
60.50 0.24217
61.00 0.21614
61.50 0.19032
62.00 0.17107
62.50 0.15399
63.00 0.13665
63.50 0.11882
64.00 0.10096
64.50 0.08893
65.00 0.07908
65.50 0.06922
66.00 0.05953
66.50 0.05073
67.00 0.04524
67.50 0.03994
68.00 0.03465
68.50 0.02934
69.00 0.02520
69.50 0.02201
70.00 0.01931
70.50 0.01688
71.00 0.01445
71.50 0.01257
72.00 0.01112
72.50 0.00968
73.00 0.00835
73.50 0.00715
74.00 0.00613
74.50 0.00549
75.00 0.00486
75.50 0.00422
76.00 0.00359
76.50 0.00310
77.00 0.00276
77.50 0.00243
78.00 0.00209
78.50 0.00179
79.00 0.00161
79.50 0.00144
80.00 0.00126
80.50 0.00109
81.00 0.00095
81.50 0.00085
82.00 0.00076
82.50 0.00065
83.00 0.00058
83.50 0.00052
84.00 0.00046
84.50 0.00040
85.00 0.00035
85.50 0.00032
86.00 0.00028
86.50 0.00025
87.00 0.00022
87.50 0.00020
88.00 0.00018
88.50 0.00016
89.00 0.00015
89.50 0.00014
90.00 0.00013
90.00 0.00013
90.50 0.00014
91.00 0.00015
91.50 0.00016
92.00 0.00018
92.50 0.00020
93.00 0.00022
93.50 0.00025
94.00 0.00028
94.50 0.00032
95.00 0.00035
95.50 0.00040
96.00 0.00046
96.50 0.00052
97.00 0.00058
97.50 0.00065
98.00 0.00076
98.50 0.00085
99.00 0.00095
99.50 0.00109
100.00 0.00126
100.50 0.00144
101.00 0.00161
101.50 0.00179
102.00 0.00209
102.50 0.00243
103.00 0.00276
103.50 0.00310
104.00 0.00359
104.50 0.00422
105.00 0.00486
105.50 0.00549
106.00 0.00613
106.50 0.00715
107.00 0.00835
107.50 0.00968
108.00 0.01112
108.50 0.01257
109.00 0.01445
109.50 0.01688
110.00 0.01931
110.50 0.02201
111.00 0.02520
111.50 0.02934
112.00 0.03465
112.50 0.03994
113.00 0.04524
113.50 0.05073
114.00 0.05953
114.50 0.06922
115.00 0.07908
115.50 0.08893
116.00 0.10096
116.50 0.11882
117.00 0.13665
117.50 0.15399
118.00 0.17107
118.50 0.19032
119.00 0.21614
119.50 0.24217
120.00 0.26807
120.50 0.29223
121.00 0.31523
121.50 0.33810
122.00 0.36325
122.50 0.39217
123.00 0.40887
123.50 0.42705
124.00 0.44632
124.50 0.46542
125.00 0.48436
125.50 0.50313
126.00 0.51712
126.50 0.52673
127.00 0.53982
127.50 0.55365
128.00 0.56740
128.50 0.58107
129.00 0.59237
129.50 0.59957
130.00 0.61019
130.50 0.62210
131.00 0.63474
131.50 0.64704
132.00 0.65876
132.50 0.67120
133.00 0.68564
133.50 0.69932
134.00 0.71411
134.50 0.72998
135.00 0.74586
135.50 0.76297
136.00 0.78015
136.50 0.79771
137.00 0.81582
137.50 0.83401
138.00 0.85308
138.50 0.87230
139.00 0.89158
139.50 0.91116
140.00 0.93138
140.50 0.95174
141.00 0.97214
141.50 0.99259
142.00 1.01247
142.50 1.03234
143.00 1.05310
143.50 1.07414
144.00 1.09372
144.50 1.11052
145.00 1.12788
145.50 1.14601
146.00 1.16417
146.50 1.18236
147.00 1.19889
147.50 1.21297
148.00 1.22711
148.50 1.24308
149.00 1.25910
149.50 1.27517
150.00 1.29129
150.50 1.30650
151.00 1.32134
151.50 1.33736
152.00 1.35298
152.50 1.36827
153.00 1.38361
153.50 1.39900
154.00 1.41408
154.50 1.42892
155.00 1.44381
155.50 1.45577
156.00 1.46656
156.50 1.47737
157.00 1.48571
157.50 1.49172
158.00 1.49777
158.50 1.50278
159.00 1.50758
159.50 1.51242
160.00 1.51709
160.50 1.51862
161.00 1.52002
161.50 1.52106
162.00 1.52333
162.50 1.52623
163.00 1.52922
163.50 1.53230
164.00 1.53434
164.50 1.53643
165.00 1.53845
165.50 1.54011
166.00 1.54187
166.50 1.54372
167.00 1.54506
167.50 1.54638
168.00 1.54730
168.50 1.54675
169.00 1.54627
169.50 1.54589
170.00 1.54500
170.50 1.54320
171.00 1.54073
171.50 1.53824
172.00 1.53718
172.50 1.53623
173.00 1.53540
173.50 1.53461
174.00 1.53362
174.50 1.53276
175.00 1.53213
175.50 1.53185
176.00 1.53170
176.50 1.53177
177.00 1.53198
177.50 1.53231
178.00 1.53276
178.50 1.53315
179.00 1.53357
179.50 1.53409
180.00 1.53474
180.00 1.53474
180.50 1.53409
181.00 1.53357
181.50 1.53315
182.00 1.53276
182.50 1.53231
183.00 1.53198
183.50 1.53177
184.00 1.53170
184.50 1.53185
185.00 1.53213
185.50 1.53276
186.00 1.53362
186.50 1.53461
187.00 1.53540
187.50 1.53623
188.00 1.53718
188.50 1.53824
189.00 1.54073
189.50 1.54320
190.00 1.54500
190.50 1.54589
191.00 1.54627
191.50 1.54675
192.00 1.54730
192.50 1.54638
193.00 1.54506
193.50 1.54372
194.00 1.54187
194.50 1.54011
195.00 1.53845
195.50 1.53643
196.00 1.53434
196.50 1.53230
197.00 1.52922
197.50 1.52623
198.00 1.52333
198.50 1.52106
199.00 1.52002
199.50 1.51862
200.00 1.51709
200.50 1.51242
201.00 1.50758
201.50 1.50278
202.00 1.49777
202.50 1.49172
203.00 1.48571
203.50 1.47737
204.00 1.46656
204.50 1.45577
205.00 1.44381
205.50 1.42892
206.00 1.41408
206.50 1.39900
207.00 1.38361
207.50 1.36827
208.00 1.35298
208.50 1.33736
209.00 1.32134
209.50 1.30650
210.00 1.29129
210.50 1.27517
211.00 1.25910
211.50 1.24308
212.00 1.22711
212.50 1.21297
213.00 1.19889
213.50 1.18236
214.00 1.16417
214.50 1.14601
215.00 1.12788
215.50 1.11052
216.00 1.09372
216.50 1.07414
217.00 1.05310
217.50 1.03234
218.00 1.01247
218.50 0.99259
219.00 0.97214
219.50 0.95174
220.00 0.93138
220.50 0.91116
221.00 0.89158
221.50 0.87230
222.00 0.85308
222.50 0.83401
223.00 0.81582
223.50 0.79771
224.00 0.78015
224.50 0.76297
225.00 0.74586
225.50 0.72998
226.00 0.71411
226.50 0.69932
227.00 0.68564
227.50 0.67120
228.00 0.65876
228.50 0.64704
229.00 0.63474
229.50 0.62210
230.00 0.61019
230.50 0.59957
231.00 0.59237
231.50 0.58107
232.00 0.56740
232.50 0.55365
233.00 0.53982
233.50 0.52673
234.00 0.51712
234.50 0.50313
235.00 0.48436
235.50 0.46542
236.00 0.44632
236.50 0.42705
237.00 0.40887
237.50 0.39217
238.00 0.36325
238.50 0.33810
239.00 0.31523
239.50 0.29223
240.00 0.26807
240.50 0.24217
241.00 0.21614
241.50 0.19032
242.00 0.17107
242.50 0.15399
243.00 0.13665
243.50 0.11882
244.00 0.10096
244.50 0.08893
245.00 0.07908
245.50 0.06922
246.00 0.05953
246.50 0.05073
247.00 0.04524
247.50 0.03994
248.00 0.03465
248.50 0.02934
249.00 0.02520
249.50 0.02201
250.00 0.01931
250.50 0.01688
251.00 0.01445
251.50 0.01257
252.00 0.01112
252.50 0.00968
253.00 0.00835
253.50 0.00715
254.00 0.00613
254.50 0.00549
255.00 0.00486
255.50 0.00422
256.00 0.00359
256.50 0.00310
257.00 0.00276
257.50 0.00243
258.00 0.00209
258.50 0.00179
259.00 0.00161
259.50 0.00144
260.00 0.00126
260.50 0.00109
261.00 0.00095
261.50 0.00085
262.00 0.00076
262.50 0.00065
263.00 0.00058
263.50 0.00052
264.00 0.00046
264.50 0.00040
265.00 0.00035
265.50 0.00032
266.00 0.00028
266.50 0.00025
267.00 0.00022
267.50 0.00020
268.00 0.00018
268.50 0.00016
269.00 0.00015
269.50 0.00014
270.00 0.00013
270.00 0.00013
270.50 0.00014
271.00 0.00015
271.50 0.00016
272.00 0.00018
272.50 0.00020
273.00 0.00022
273.50 0.00025
274.00 0.00028
274.50 0.00032
275.00 0.00035
275.50 0.00040
276.00 0.00046
276.50 0.00052
277.00 0.00058
277.50 0.00065
278.00 0.00076
278.50 0.00085
279.00 0.00095
279.50 0.00109
280.00 0.00126
280.50 0.00144
281.00 0.00161
281.50 0.00179
282.00 0.00209
282.50 0.00243
283.00 0.00276
283.50 0.00310
284.00 0.00359
284.50 0.00422
285.00 0.00486
285.50 0.00549
286.00 0.00613
286.50 0.00715
287.00 0.00835
287.50 0.00968
288.00 0.01112
288.50 0.01257
289.00 0.01445
289.50 0.01688
290.00 0.01931
290.50 0.02201
291.00 0.02520
291.50 0.02934
292.00 0.03465
292.50 0.03994
293.00 0.04524
293.50 0.05073
294.00 0.05953
294.50 0.06922
295.00 0.07908
295.50 0.08893
296.00 0.10096
296.50 0.11882
297.00 0.13665
297.50 0.15399
298.00 0.17107
298.50 0.19032
299.00 0.21614
299.50 0.24217
300.00 0.26807
300.50 0.29223
301.00 0.31523
301.50 0.33810
302.00 0.36325
302.50 0.39217
303.00 0.40887
303.50 0.42705
304.00 0.44632
304.50 0.46542
305.00 0.48436
305.50 0.50313
306.00 0.51712
306.50 0.52673
307.00 0.53982
307.50 0.55365
308.00 0.56740
308.50 0.58107
309.00 0.59237
309.50 0.59957
310.00 0.61019
310.50 0.62210
311.00 0.63474
311.50 0.64704
312.00 0.65876
312.50 0.67120
313.00 0.68564
313.50 0.69932
314.00 0.71411
314.50 0.72998
315.00 0.74586
315.50 0.76297
316.00 0.78015
316.50 0.79771
317.00 0.81582
317.50 0.83401
318.00 0.85308
318.50 0.87230
319.00 0.89158
319.50 0.91116
320.00 0.93138
320.50 0.95174
321.00 0.97214
321.50 0.99259
322.00 1.01247
322.50 1.03234
323.00 1.05310
323.50 1.07414
324.00 1.09372
324.50 1.11052
325.00 1.12788
325.50 1.14601
326.00 1.16417
326.50 1.18236
327.00 1.19889
327.50 1.21297
328.00 1.22711
328.50 1.24308
329.00 1.25910
329.50 1.27517
330.00 1.29129
330.50 1.30650
331.00 1.32134
331.50 1.33736
332.00 1.35298
332.50 1.36827
333.00 1.38361
333.50 1.39900
334.00 1.41408
334.50 1.42892
335.00 1.44381
335.50 1.45577
336.00 1.46656
336.50 1.47737
337.00 1.48571
337.50 1.49172
338.00 1.49777
338.50 1.50278
339.00 1.50758
339.50 1.51242
340.00 1.51709
340.50 1.51862
341.00 1.52002
341.50 1.52106
342.00 1.52333
342.50 1.52623
343.00 1.52922
343.50 1.53230
344.00 1.53434
344.50 1.53643
345.00 1.53845
345.50 1.54011
346.00 1.54187
346.50 1.54372
347.00 1.54506
347.50 1.54638
348.00 1.54730
348.50 1.54675
349.00 1.54627
349.50 1.54589
350.00 1.54500
350.50 1.54320
351.00 1.54073
351.50 1.53824
352.00 1.53718
352.50 1.53623
353.00 1.53540
353.50 1.53461
354.00 1.53362
354.50 1.53276
355.00 1.53213
355.50 1.53185
356.00 1.53170
356.50 1.53177
357.00 1.53198
357.50 1.53231
358.00 1.53276
358.50 1.53315
359.00 1.53357
359.50 1.53409
360.00 1.53474
