phi[deg] B[T]
0.00 1.53465
0.50 1.53408
1.00 1.53363
1.50 1.53329
2.00 1.53307
2.50 1.53277
3.00 1.53259
3.50 1.53254
4.00 1.53261
4.50 1.53278
5.00 1.53307
5.50 1.53361
6.00 1.53459
6.50 1.53569
7.00 1.53654
7.50 1.53721
8.00 1.53799
8.50 1.53889
9.00 1.54027
9.50 1.54290
10.00 1.54470
10.50 1.54578
11.00 1.54567
11.50 1.54566
12.00 1.54572
12.50 1.54587
13.00 1.54478
13.50 1.54320
14.00 1.54139
14.50 1.53893
15.00 1.53655
15.50 1.53426
16.00 1.53205
16.50 1.52996
17.00 1.52813
17.50 1.52670
18.00 1.52364
18.50 1.52012
19.00 1.51666
19.50 1.51327
20.00 1.51038
20.50 1.50864
21.00 1.50696
21.50 1.50007
22.00 1.49202
22.50 1.48401
23.00 1.47603
23.50 1.46877
24.00 1.46351
24.50 1.45131
25.00 1.43700
25.50 1.42404
26.00 1.41111
26.50 1.39821
27.00 1.38535
27.50 1.37113
28.00 1.35581
28.50 1.34046
29.00 1.32485
29.50 1.30928
30.00 1.29376
30.50 1.27829
31.00 1.26314
31.50 1.24927
32.00 1.23579
32.50 1.21922
33.00 1.20207
33.50 1.18493
34.00 1.16781
34.50 1.15070
35.00 1.13377
35.50 1.11760
36.00 1.09825
36.50 1.07720
37.00 1.05687
37.50 1.03699
38.00 1.01712
38.50 0.99616
39.00 0.97522
39.50 0.95431
40.00 0.93363
40.50 0.91331
41.00 0.89315
41.50 0.87344
42.00 0.85391
42.50 0.83446
43.00 0.81601
43.50 0.79762
44.00 0.77965
44.50 0.76219
45.00 0.74490
45.50 0.72892
46.00 0.71276
46.50 0.69765
47.00 0.68358
47.50 0.66910
48.00 0.65630
48.50 0.64376
49.00 0.63059
49.50 0.61815
50.00 0.60650
50.50 0.59693
51.00 0.58781
51.50 0.57518
52.00 0.56251
52.50 0.54980
53.00 0.53657
53.50 0.51972
54.00 0.50471
54.50 0.49063
55.00 0.47640
55.50 0.46202
56.00 0.44593
56.50 0.42848
57.00 0.40805
57.50 0.38744
58.00 0.36667
58.50 0.34474
59.00 0.31780
59.50 0.29073
60.00 0.26846
60.50 0.24748
61.00 0.22640
61.50 0.20523
62.00 0.18129
62.50 0.15661
63.00 0.13938
63.50 0.12357
64.00 0.11106
64.50 0.09855
65.00 0.08604
65.50 0.07413
66.00 0.06616
66.50 0.05818
67.00 0.05017
67.50 0.04412
68.00 0.03820
68.50 0.03336
69.00 0.03010
69.50 0.02684
70.00 0.02357
70.50 0.02030
71.00 0.01721
71.50 0.01528
72.00 0.01376
72.50 0.01226
73.00 0.01076
73.50 0.00925
74.00 0.00779
74.50 0.00700
75.00 0.00620
75.50 0.00541
76.00 0.00472
76.50 0.00405
77.00 0.00360
77.50 0.00324
78.00 0.00289
78.50 0.00254
79.00 0.00220
79.50 0.00187
80.00 0.00168
80.50 0.00149
81.00 0.00131
81.50 0.00117
82.00 0.00103
82.50 0.00090
83.00 0.00080
83.50 0.00071
84.00 0.00062
84.50 0.00057
85.00 0.00051
85.50 0.00045
86.00 0.00040
86.50 0.00036
87.00 0.00033
87.50 0.00031
88.00 0.00028
88.50 0.00026
89.00 0.00025
89.50 0.00024
90.00 0.00022
90.00 0.00022
90.50 0.00024
91.00 0.00025
91.50 0.00026
92.00 0.00028
92.50 0.00031
93.00 0.00033
93.50 0.00036
94.00 0.00040
94.50 0.00045
95.00 0.00051
95.50 0.00057
96.00 0.00062
96.50 0.00071
97.00 0.00080
97.50 0.00090
98.00 0.00103
98.50 0.00117
99.00 0.00131
99.50 0.00149
100.00 0.00168
100.50 0.00187
101.00 0.00220
101.50 0.00254
102.00 0.00289
102.50 0.00324
103.00 0.00360
103.50 0.00405
104.00 0.00472
104.50 0.00541
105.00 0.00620
105.50 0.00700
106.00 0.00779
106.50 0.00925
107.00 0.01076
107.50 0.01226
108.00 0.01376
108.50 0.01528
109.00 0.01721
109.50 0.02030
110.00 0.02357
110.50 0.02684
111.00 0.03010
111.50 0.03336
112.00 0.03820
112.50 0.04412
113.00 0.05017
113.50 0.05818
114.00 0.06616
114.50 0.07413
115.00 0.08604
115.50 0.09855
116.00 0.11106
116.50 0.12357
117.00 0.13938
117.50 0.15661
118.00 0.18129
118.50 0.20523
119.00 0.22640
119.50 0.24748
120.00 0.26846
120.50 0.29073
121.00 0.31780
121.50 0.34474
122.00 0.36667
122.50 0.38744
123.00 0.40805
123.50 0.42848
124.00 0.44593
124.50 0.46202
125.00 0.47640
125.50 0.49063
126.00 0.50471
126.50 0.51972
127.00 0.53657
127.50 0.54980
128.00 0.56251
128.50 0.57518
129.00 0.58781
129.50 0.59693
130.00 0.60650
130.50 0.61815
131.00 0.63059
131.50 0.64376
132.00 0.65630
132.50 0.66910
133.00 0.68358
133.50 0.69765
134.00 0.71276
134.50 0.72892
135.00 0.74490
135.50 0.76219
136.00 0.77965
136.50 0.79762
137.00 0.81601
137.50 0.83446
138.00 0.85391
138.50 0.87344
139.00 0.89315
139.50 0.91331
140.00 0.93363
140.50 0.95431
141.00 0.97522
141.50 0.99616
142.00 1.01712
142.50 1.03699
143.00 1.05687
143.50 1.07720
144.00 1.09825
144.50 1.11760
145.00 1.13377
145.50 1.15070
146.00 1.16781
146.50 1.18493
147.00 1.20207
147.50 1.21922
148.00 1.23579
148.50 1.24927
149.00 1.26314
149.50 1.27829
150.00 1.29376
150.50 1.30928
151.00 1.32485
151.50 1.34046
152.00 1.35581
152.50 1.37113
153.00 1.38535
153.50 1.39821
154.00 1.41111
154.50 1.42404
155.00 1.43700
155.50 1.45131
156.00 1.46351
156.50 1.46877
157.00 1.47603
157.50 1.48401
158.00 1.49202
158.50 1.50007
159.00 1.50696
159.50 1.50864
160.00 1.51038
160.50 1.51327
161.00 1.51666
161.50 1.52012
162.00 1.52364
162.50 1.52670
163.00 1.52813
163.50 1.52996
164.00 1.53205
164.50 1.53426
165.00 1.53655
165.50 1.53893
166.00 1.54139
166.50 1.54320
167.00 1.54478
167.50 1.54587
168.00 1.54572
168.50 1.54566
169.00 1.54567
169.50 1.54578
170.00 1.54470
170.50 1.54290
171.00 1.54027
171.50 1.53889
172.00 1.53799
172.50 1.53721
173.00 1.53654
173.50 1.53569
174.00 1.53459
174.50 1.53361
175.00 1.53307
175.50 1.53278
176.00 1.53261
176.50 1.53254
177.00 1.53259
177.50 1.53277
178.00 1.53307
178.50 1.53329
179.00 1.53363
179.50 1.53408
180.00 1.53465
180.00 1.53465
180.50 1.53408
181.00 1.53363
181.50 1.53329
182.00 1.53307
182.50 1.53277
183.00 1.53259
183.50 1.53254
184.00 1.53261
184.50 1.53278
185.00 1.53307
185.50 1.53361
186.00 1.53459
186.50 1.53569
187.00 1.53654
187.50 1.53721
188.00 1.53799
188.50 1.53889
189.00 1.54027
189.50 1.54290
190.00 1.54470
190.50 1.54578
191.00 1.54567
191.50 1.54566
192.00 1.54572
192.50 1.54587
193.00 1.54478
193.50 1.54320
194.00 1.54139
194.50 1.53893
195.00 1.53655
195.50 1.53426
196.00 1.53205
196.50 1.52996
197.00 1.52813
197.50 1.52670
198.00 1.52364
198.50 1.52012
199.00 1.51666
199.50 1.51327
200.00 1.51038
200.50 1.50864
201.00 1.50696
201.50 1.50007
202.00 1.49202
202.50 1.48401
203.00 1.47603
203.50 1.46877
204.00 1.46351
204.50 1.45131
205.00 1.43700
205.50 1.42404
206.00 1.41111
206.50 1.39821
207.00 1.38535
207.50 1.37113
208.00 1.35581
208.50 1.34046
209.00 1.32485
209.50 1.30928
210.00 1.29376
210.50 1.27829
211.00 1.26314
211.50 1.24927
212.00 1.23579
212.50 1.21922
213.00 1.20207
213.50 1.18493
214.00 1.16781
214.50 1.15070
215.00 1.13377
215.50 1.11760
216.00 1.09825
216.50 1.07720
217.00 1.05687
217.50 1.03699
218.00 1.01712
218.50 0.99616
219.00 0.97522
219.50 0.95431
220.00 0.93363
220.50 0.91331
221.00 0.89315
221.50 0.87344
222.00 0.85391
222.50 0.83446
223.00 0.81601
223.50 0.79762
224.00 0.77965
224.50 0.76219
225.00 0.74490
225.50 0.72892
226.00 0.71276
226.50 0.69765
227.00 0.68358
227.50 0.66910
228.00 0.65630
228.50 0.64376
229.00 0.63059
229.50 0.61815
230.00 0.60650
230.50 0.59693
231.00 0.58781
231.50 0.57518
232.00 0.56251
232.50 0.54980
233.00 0.53657
233.50 0.51972
234.00 0.50471
234.50 0.49063
235.00 0.47640
235.50 0.46202
236.00 0.44593
236.50 0.42848
237.00 0.40805
237.50 0.38744
238.00 0.36667
238.50 0.34474
239.00 0.31780
239.50 0.29073
240.00 0.26846
240.50 0.24748
241.00 0.22640
241.50 0.20523
242.00 0.18129
242.50 0.15661
243.00 0.13938
243.50 0.12357
244.00 0.11106
244.50 0.09855
245.00 0.08604
245.50 0.07413
246.00 0.06616
246.50 0.05818
247.00 0.05017
247.50 0.04412
248.00 0.03820
248.50 0.03336
249.00 0.03010
249.50 0.02684
250.00 0.02357
250.50 0.02030
251.00 0.01721
251.50 0.01528
252.00 0.01376
252.50 0.01226
253.00 0.01076
253.50 0.00925
254.00 0.00779
254.50 0.00700
255.00 0.00620
255.50 0.00541
256.00 0.00472
256.50 0.00405
257.00 0.00360
257.50 0.00324
258.00 0.00289
258.50 0.00254
259.00 0.00220
259.50 0.00187
260.00 0.00168
260.50 0.00149
261.00 0.00131
261.50 0.00117
262.00 0.00103
262.50 0.00090
263.00 0.00080
263.50 0.00071
264.00 0.00062
264.50 0.00057
265.00 0.00051
265.50 0.00045
266.00 0.00040
266.50 0.00036
267.00 0.00033
267.50 0.00031
268.00 0.00028
268.50 0.00026
269.00 0.00025
269.50 0.00024
270.00 0.00022
270.00 0.00022
270.50 0.00024
271.00 0.00025
271.50 0.00026
272.00 0.00028
272.50 0.00031
273.00 0.00033
273.50 0.00036
274.00 0.00040
274.50 0.00045
275.00 0.00051
275.50 0.00057
276.00 0.00062
276.50 0.00071
277.00 0.00080
277.50 0.00090
278.00 0.00103
278.50 0.00117
279.00 0.00131
279.50 0.00149
280.00 0.00168
280.50 0.00187
281.00 0.00220
281.50 0.00254
282.00 0.00289
282.50 0.00324
283.00 0.00360
283.50 0.00405
284.00 0.00472
284.50 0.00541
285.00 0.00620
285.50 0.00700
286.00 0.00779
286.50 0.00925
287.00 0.01076
287.50 0.01226
288.00 0.01376
288.50 0.01528
289.00 0.01721
289.50 0.02030
290.00 0.02357
290.50 0.02684
291.00 0.03010
291.50 0.03336
292.00 0.03820
292.50 0.04412
293.00 0.05017
293.50 0.05818
294.00 0.06616
294.50 0.07413
295.00 0.08604
295.50 0.09855
296.00 0.11106
296.50 0.12357
297.00 0.13938
297.50 0.15661
298.00 0.18129
298.50 0.20523
299.00 0.22640
299.50 0.24748
300.00 0.26846
300.50 0.29073
301.00 0.31780
301.50 0.34474
302.00 0.36667
302.50 0.38744
303.00 0.40805
303.50 0.42848
304.00 0.44593
304.50 0.46202
305.00 0.47640
305.50 0.49063
306.00 0.50471
306.50 0.51972
307.00 0.53657
307.50 0.54980
308.00 0.56251
308.50 0.57518
309.00 0.58781
309.50 0.59693
310.00 0.60650
310.50 0.61815
311.00 0.63059
311.50 0.64376
312.00 0.65630
312.50 0.66910
313.00 0.68358
313.50 0.69765
314.00 0.71276
314.50 0.72892
315.00 0.74490
315.50 0.76219
316.00 0.77965
316.50 0.79762
317.00 0.81601
317.50 0.83446
318.00 0.85391
318.50 0.87344
319.00 0.89315
319.50 0.91331
320.00 0.93363
320.50 0.95431
321.00 0.97522
321.50 0.99616
322.00 1.01712
322.50 1.03699
323.00 1.05687
323.50 1.07720
324.00 1.09825
324.50 1.11760
325.00 1.13377
325.50 1.15070
326.00 1.16781
326.50 1.18493
327.00 1.20207
327.50 1.21922
328.00 1.23579
328.50 1.24927
329.00 1.26314
329.50 1.27829
330.00 1.29376
330.50 1.30928
331.00 1.32485
331.50 1.34046
332.00 1.35581
332.50 1.37113
333.00 1.38535
333.50 1.39821
334.00 1.41111
334.50 1.42404
335.00 1.43700
335.50 1.45131
336.00 1.46351
336.50 1.46877
337.00 1.47603
337.50 1.48401
338.00 1.49202
338.50 1.50007
339.00 1.50696
339.50 1.50864
340.00 1.51038
340.50 1.51327
341.00 1.51666
341.50 1.52012
342.00 1.52364
342.50 1.52670
343.00 1.52813
343.50 1.52996
344.00 1.53205
344.50 1.53426
345.00 1.53655
345.50 1.53893
346.00 1.54139
346.50 1.54320
347.00 1.54478
347.50 1.54587
348.00 1.54572
348.50 1.54566
349.00 1.54567
349.50 1.54578
350.00 1.54470
350.50 1.54290
351.00 1.54027
351.50 1.53889
352.00 1.53799
352.50 1.53721
353.00 1.53654
353.50 1.53569
354.00 1.53459
354.50 1.53361
355.00 1.53307
355.50 1.53278
356.00 1.53261
356.50 1.53254
357.00 1.53259
357.50 1.53277
358.00 1.53307
358.50 1.53329
359.00 1.53363
359.50 1.53408
360.00 1.53465
