phi[deg] B[T]
0.00 1.53550
0.50 1.53483
1.00 1.53428
1.50 1.53384
2.00 1.53341
2.50 1.53290
3.00 1.53252
3.50 1.53226
4.00 1.53213
4.50 1.53222
5.00 1.53243
5.50 1.53299
6.00 1.53376
6.50 1.53466
7.00 1.53539
7.50 1.53614
8.00 1.53702
8.50 1.53801
9.00 1.54041
9.50 1.54280
10.00 1.54453
10.50 1.54535
11.00 1.54568
11.50 1.54608
12.00 1.54658
12.50 1.54561
13.00 1.54425
13.50 1.54286
14.00 1.54097
14.50 1.53917
15.00 1.53747
15.50 1.53543
16.00 1.53331
16.50 1.53124
17.00 1.52814
17.50 1.52512
18.00 1.52220
18.50 1.51990
19.00 1.51884
19.50 1.51742
20.00 1.51587
20.50 1.51118
21.00 1.50633
21.50 1.50151
22.00 1.49649
22.50 1.49043
23.00 1.48441
23.50 1.47606
24.00 1.46525
24.50 1.45446
25.00 1.44250
25.50 1.42761
26.00 1.41277
26.50 1.39770
27.00 1.38233
27.50 1.36700
28.00 1.35171
28.50 1.33610
29.00 1.32009
29.50 1.30526
30.00 1.29006
30.50 1.27397
31.00 1.25792
31.50 1.24192
32.00 1.22598
32.50 1.21186
33.00 1.19780
33.50 1.18132
34.00 1.16319
34.50 1.14510
35.00 1.12703
35.50 1.10974
36.00 1.09302
36.50 1.07354
37.00 1.05260
37.50 1.03195
38.00 1.01216
38.50 0.99236
39.00 0.97201
39.50 0.95169
40.00 0.93142
40.50 0.91127
41.00 0.89175
41.50 0.87254
42.00 0.85337
42.50 0.83434
43.00 0.81619
43.50 0.79812
44.00 0.78058
44.50 0.76341
45.00 0.74631
45.50 0.73043
46.00 0.71456
46.50 0.69976
47.00 0.68606
47.50 0.67160
48.00 0.65914
48.50 0.64741
49.00 0.63509
49.50 0.62243
50.00 0.61050
50.50 0.59986
51.00 0.59265
51.50 0.58134
52.00 0.56766
52.50 0.55390
53.00 0.54006
53.50 0.52696
54.00 0.51735
54.50 0.50336
55.00 0.48458
55.50 0.46563
56.00 0.44652
56.50 0.42724
57.00 0.40905
57.50 0.39235
58.00 0.36342
58.50 0.33826
59.00 0.31538
59.50 0.29237
60.00 0.26820
60.50 0.24228
61.00 0.21625
61.50 0.19041
62.00 0.17115
62.50 0.15407
63.00 0.13672
63.50 0.11888
64.00 0.10101
64.50 0.08898
65.00 0.07912
65.50 0.06925
66.00 0.05956
66.50 0.05075
67.00 0.04526
67.50 0.03996
68.00 0.03466
68.50 0.02936
69.00 0.02522
69.50 0.02202
70.00 0.01932
70.50 0.01689
71.00 0.01446
71.50 0.01257
72.00 0.01113
72.50 0.00969
73.00 0.00835
73.50 0.00715
74.00 0.00613
74.50 0.00549
75.00 0.00486
75.50 0.00423
76.00 0.00360
76.50 0.00310
77.00 0.00276
77.50 0.00243
78.00 0.00210
78.50 0.00179
79.00 0.00161
79.50 0.00144
80.00 0.00126
80.50 0.00109
81.00 0.00095
81.50 0.00085
82.00 0.00076
82.50 0.00065
83.00 0.00058
83.50 0.00052
84.00 0.00046
84.50 0.00040
85.00 0.00035
85.50 0.00032
86.00 0.00028
86.50 0.00025
87.00 0.00022
87.50 0.00020
88.00 0.00018
88.50 0.00016
89.00 0.00015
89.50 0.00014
90.00 0.00013
90.00 0.00013
90.50 0.00014
91.00 0.00015
91.50 0.00016
92.00 0.00018
92.50 0.00020
93.00 0.00022
93.50 0.00025
94.00 0.00028
94.50 0.00032
95.00 0.00035
95.50 0.00040
96.00 0.00046
96.50 0.00052
97.00 0.00058
97.50 0.00065
98.00 0.00076
98.50 0.00085
99.00 0.00095
99.50 0.00109
100.00 0.00126
100.50 0.00144
101.00 0.00161
101.50 0.00179
102.00 0.00210
102.50 0.00243
103.00 0.00276
103.50 0.00310
104.00 0.00360
104.50 0.00423
105.00 0.00486
105.50 0.00549
106.00 0.00613
106.50 0.00715
107.00 0.00835
107.50 0.00969
108.00 0.01113
108.50 0.01257
109.00 0.01446
109.50 0.01689
110.00 0.01932
110.50 0.02202
111.00 0.02522
111.50 0.02936
112.00 0.03466
112.50 0.03996
113.00 0.04526
113.50 0.05075
114.00 0.05956
114.50 0.06925
115.00 0.07912
115.50 0.08898
116.00 0.10101
116.50 0.11888
117.00 0.13672
117.50 0.15407
118.00 0.17115
118.50 0.19041
119.00 0.21625
119.50 0.24228
120.00 0.26820
120.50 0.29237
121.00 0.31538
121.50 0.33826
122.00 0.36342
122.50 0.39235
123.00 0.40905
123.50 0.42724
124.00 0.44652
124.50 0.46563
125.00 0.48458
125.50 0.50336
126.00 0.51735
126.50 0.52696
127.00 0.54006
127.50 0.55390
128.00 0.56766
128.50 0.58134
129.00 0.59265
129.50 0.59986
130.00 0.61050
130.50 0.62243
131.00 0.63509
131.50 0.64741
132.00 0.65914
132.50 0.67160
133.00 0.68606
133.50 0.69976
134.00 0.71456
134.50 0.73043
135.00 0.74631
135.50 0.76341
136.00 0.78058
136.50 0.79812
137.00 0.81619
137.50 0.83434
138.00 0.85337
138.50 0.87254
139.00 0.89175
139.50 0.91127
140.00 0.93142
140.50 0.95169
141.00 0.97201
141.50 0.99236
142.00 1.01216
142.50 1.03195
143.00 1.05260
143.50 1.07354
144.00 1.09302
144.50 1.10974
145.00 1.12703
145.50 1.14510
146.00 1.16319
146.50 1.18132
147.00 1.19780
147.50 1.21186
148.00 1.22598
148.50 1.24192
149.00 1.25792
149.50 1.27397
150.00 1.29006
150.50 1.30526
151.00 1.32009
151.50 1.33610
152.00 1.35171
152.50 1.36700
153.00 1.38233
153.50 1.39770
154.00 1.41277
154.50 1.42761
155.00 1.44250
155.50 1.45446
156.00 1.46525
156.50 1.47606
157.00 1.48441
157.50 1.49043
158.00 1.49649
158.50 1.50151
159.00 1.50633
159.50 1.51118
160.00 1.51587
160.50 1.51742
161.00 1.51884
161.50 1.51990
162.00 1.52220
162.50 1.52512
163.00 1.52814
163.50 1.53124
164.00 1.53331
164.50 1.53543
165.00 1.53747
165.50 1.53917
166.00 1.54097
166.50 1.54286
167.00 1.54425
167.50 1.54561
168.00 1.54658
168.50 1.54608
169.00 1.54568
169.50 1.54535
170.00 1.54453
170.50 1.54280
171.00 1.54041
171.50 1.53801
172.00 1.53702
172.50 1.53614
173.00 1.53539
173.50 1.53466
174.00 1.53376
174.50 1.53299
175.00 1.53243
175.50 1.53222
176.00 1.53213
176.50 1.53226
177.00 1.53252
177.50 1.53290
178.00 1.53341
178.50 1.53384
179.00 1.53428
179.50 1.53483
180.00 1.53550
180.00 1.53550
180.50 1.53483
181.00 1.53428
181.50 1.53384
182.00 1.53341
182.50 1.53290
183.00 1.53252
183.50 1.53226
184.00 1.53213
184.50 1.53222
185.00 1.53243
185.50 1.53299
186.00 1.53376
186.50 1.53466
187.00 1.53539
187.50 1.53614
188.00 1.53702
188.50 1.53801
189.00 1.54041
189.50 1.54280
190.00 1.54453
190.50 1.54535
191.00 1.54568
191.50 1.54608
192.00 1.54658
192.50 1.54561
193.00 1.54425
193.50 1.54286
194.00 1.54097
194.50 1.53917
195.00 1.53747
195.50 1.53543
196.00 1.53331
196.50 1.53124
197.00 1.52814
197.50 1.52512
198.00 1.52220
198.50 1.51990
199.00 1.51884
199.50 1.51742
200.00 1.51587
200.50 1.51118
201.00 1.50633
201.50 1.50151
202.00 1.49649
202.50 1.49043
203.00 1.48441
203.50 1.47606
204.00 1.46525
204.50 1.45446
205.00 1.44250
205.50 1.42761
206.00 1.41277
206.50 1.39770
207.00 1.38233
207.50 1.36700
208.00 1.35171
208.50 1.33610
209.00 1.32009
209.50 1.30526
210.00 1.29006
210.50 1.27397
211.00 1.25792
211.50 1.24192
212.00 1.22598
212.50 1.21186
213.00 1.19780
213.50 1.18132
214.00 1.16319
214.50 1.14510
215.00 1.12703
215.50 1.10974
216.00 1.09302
216.50 1.07354
217.00 1.05260
217.50 1.03195
218.00 1.01216
218.50 0.99236
219.00 0.97201
219.50 0.95169
220.00 0.93142
220.50 0.91127
221.00 0.89175
221.50 0.87254
222.00 0.85337
222.50 0.83434
223.00 0.81619
223.50 0.79812
224.00 0.78058
224.50 0.76341
225.00 0.74631
225.50 0.73043
226.00 0.71456
226.50 0.69976
227.00 0.68606
227.50 0.67160
228.00 0.65914
228.50 0.64741
229.00 0.63509
229.50 0.62243
230.00 0.61050
230.50 0.59986
231.00 0.59265
231.50 0.58134
232.00 0.56766
232.50 0.55390
233.00 0.54006
233.50 0.52696
234.00 0.51735
234.50 0.50336
235.00 0.48458
235.50 0.46563
236.00 0.44652
236.50 0.42724
237.00 0.40905
237.50 0.39235
238.00 0.36342
238.50 0.33826
239.00 0.31538
239.50 0.29237
240.00 0.26820
240.50 0.24228
241.00 0.21625
241.50 0.19041
242.00 0.17115
242.50 0.15407
243.00 0.13672
243.50 0.11888
244.00 0.10101
244.50 0.08898
245.00 0.07912
245.50 0.06925
246.00 0.05956
246.50 0.05075
247.00 0.04526
247.50 0.03996
248.00 0.03466
248.50 0.02936
249.00 0.02522
249.50 0.02202
250.00 0.01932
250.50 0.01689
251.00 0.01446
251.50 0.01257
252.00 0.01113
252.50 0.00969
253.00 0.00835
253.50 0.00715
254.00 0.00613
254.50 0.00549
255.00 0.00486
255.50 0.00423
256.00 0.00360
256.50 0.00310
257.00 0.00276
257.50 0.00243
258.00 0.00210
258.50 0.00179
259.00 0.00161
259.50 0.00144
260.00 0.00126
260.50 0.00109
261.00 0.00095
261.50 0.00085
262.00 0.00076
262.50 0.00065
263.00 0.00058
263.50 0.00052
264.00 0.00046
264.50 0.00040
265.00 0.00035
265.50 0.00032
266.00 0.00028
266.50 0.00025
267.00 0.00022
267.50 0.00020
268.00 0.00018
268.50 0.00016
269.00 0.00015
269.50 0.00014
270.00 0.00013
270.00 0.00013
270.50 0.00014
271.00 0.00015
271.50 0.00016
272.00 0.00018
272.50 0.00020
273.00 0.00022
273.50 0.00025
274.00 0.00028
274.50 0.00032
275.00 0.00035
275.50 0.00040
276.00 0.00046
276.50 0.00052
277.00 0.00058
277.50 0.00065
278.00 0.00076
278.50 0.00085
279.00 0.00095
279.50 0.00109
280.00 0.00126
280.50 0.00144
281.00 0.00161
281.50 0.00179
282.00 0.00210
282.50 0.00243
283.00 0.00276
283.50 0.00310
284.00 0.00360
284.50 0.00423
285.00 0.00486
285.50 0.00549
286.00 0.00613
286.50 0.00715
287.00 0.00835
287.50 0.00969
288.00 0.01113
288.50 0.01257
289.00 0.01446
289.50 0.01689
290.00 0.01932
290.50 0.02202
291.00 0.02522
291.50 0.02936
292.00 0.03466
292.50 0.03996
293.00 0.04526
293.50 0.05075
294.00 0.05956
294.50 0.06925
295.00 0.07912
295.50 0.08898
296.00 0.10101
296.50 0.11888
297.00 0.13672
297.50 0.15407
298.00 0.17115
298.50 0.19041
299.00 0.21625
299.50 0.24228
300.00 0.26820
300.50 0.29237
301.00 0.31538
301.50 0.33826
302.00 0.36342
302.50 0.39235
303.00 0.40905
303.50 0.42724
304.00 0.44652
304.50 0.46563
305.00 0.48458
305.50 0.50336
306.00 0.51735
306.50 0.52696
307.00 0.54006
307.50 0.55390
308.00 0.56766
308.50 0.58134
309.00 0.59265
309.50 0.59986
310.00 0.61050
310.50 0.62243
311.00 0.63509
311.50 0.64741
312.00 0.65914
312.50 0.67160
313.00 0.68606
313.50 0.69976
314.00 0.71456
314.50 0.73043
315.00 0.74631
315.50 0.76341
316.00 0.78058
316.50 0.79812
317.00 0.81619
317.50 0.83434
318.00 0.85337
318.50 0.87254
319.00 0.89175
319.50 0.91127
320.00 0.93142
320.50 0.95169
321.00 0.97201
321.50 0.99236
322.00 1.01216
322.50 1.03195
323.00 1.05260
323.50 1.07354
324.00 1.09302
324.50 1.10974
325.00 1.12703
325.50 1.14510
326.00 1.16319
326.50 1.18132
327.00 1.19780
327.50 1.21186
328.00 1.22598
328.50 1.24192
329.00 1.25792
329.50 1.27397
330.00 1.29006
330.50 1.30526
331.00 1.32009
331.50 1.33610
332.00 1.35171
332.50 1.36700
333.00 1.38233
333.50 1.39770
334.00 1.41277
334.50 1.42761
335.00 1.44250
335.50 1.45446
336.00 1.46525
336.50 1.47606
337.00 1.48441
337.50 1.49043
338.00 1.49649
338.50 1.50151
339.00 1.50633
339.50 1.51118
340.00 1.51587
340.50 1.51742
341.00 1.51884
341.50 1.51990
342.00 1.52220
342.50 1.52512
343.00 1.52814
343.50 1.53124
344.00 1.53331
344.50 1.53543
345.00 1.53747
345.50 1.53917
346.00 1.54097
346.50 1.54286
347.00 1.54425
347.50 1.54561
348.00 1.54658
348.50 1.54608
349.00 1.54568
349.50 1.54535
350.00 1.54453
350.50 1.54280
351.00 1.54041
351.50 1.53801
352.00 1.53702
352.50 1.53614
353.00 1.53539
353.50 1.53466
354.00 1.53376
354.50 1.53299
355.00 1.53243
355.50 1.53222
356.00 1.53213
356.50 1.53226
357.00 1.53252
357.50 1.53290
358.00 1.53341
358.50 1.53384
359.00 1.53428
359.50 1.53483
360.00 1.53550
