phi[deg] B[T]
0.00 1.60102
0.50 1.59924
1.00 1.59801
1.50 1.59726
2.00 1.59613
2.50 1.59284
3.00 1.58948
3.50 1.58568
4.00 1.58097
4.50 1.57595
5.00 1.57095
5.50 1.56376
6.00 1.55620
6.50 1.54920
7.00 1.54196
7.50 1.53158
8.00 1.52118
8.50 1.51077
9.00 1.50000
9.50 1.48561
10.00 1.47080
10.50 1.45795
11.00 1.44503
11.50 1.43204
12.00 1.41790
12.50 1.39973
13.00 1.38037
13.50 1.36091
14.00 1.34147
14.50 1.32072
15.00 1.29804
15.50 1.27665
16.00 1.25512
16.50 1.23358
17.00 1.21095
17.50 1.18359
18.00 1.15607
18.50 1.12878
19.00 1.10191
19.50 1.07000
20.00 1.03565
20.50 1.00681
21.00 0.97774
21.50 0.94842
22.00 0.91853
22.50 0.88351
23.00 0.84629
23.50 0.80883
24.00 0.77113
24.50 0.73395
25.00 0.69922
25.50 0.66453
26.00 0.62961
26.50 0.59445
27.00 0.55906
27.50 0.51461
28.00 0.47298
28.50 0.43529
29.00 0.40257
29.50 0.37359
30.00 0.34455
30.50 0.31547
31.00 0.28679
31.50 0.26054
32.00 0.23423
32.50 0.20786
33.00 0.18991
33.50 0.17409
34.00 0.15826
34.50 0.14277
35.00 0.12742
35.50 0.11207
36.00 0.10233
36.50 0.09317
37.00 0.08485
37.50 0.07736
38.00 0.06988
38.50 0.06241
39.00 0.05494
39.50 0.04878
40.00 0.04376
40.50 0.03960
41.00 0.03616
41.50 0.03271
42.00 0.02927
42.50 0.02584
43.00 0.02347
43.50 0.02141
44.00 0.01936
44.50 0.01731
45.00 0.01526
45.50 0.01402
46.00 0.01277
46.50 0.01153
47.00 0.01028
47.50 0.00904
48.00 0.00831
48.50 0.00760
49.00 0.00690
49.50 0.00620
50.00 0.00549
50.50 0.00493
51.00 0.00443
51.50 0.00403
52.00 0.00371
52.50 0.00339
53.00 0.00307
53.50 0.00275
54.00 0.00245
54.50 0.00216
55.00 0.00201
55.50 0.00187
56.00 0.00173
56.50 0.00159
57.00 0.00145
57.50 0.00131
58.00 0.00117
58.50 0.00106
59.00 0.00100
59.50 0.00094
60.00 0.00088
60.50 0.00082
61.00 0.00075
61.50 0.00069
62.00 0.00063
62.50 0.00059
63.00 0.00056
63.50 0.00054
64.00 0.00052
64.50 0.00049
65.00 0.00047
65.50 0.00044
66.00 0.00042
66.50 0.00040
67.00 0.00039
67.50 0.00038
68.00 0.00036
68.50 0.00035
69.00 0.00034
69.50 0.00032
70.00 0.00032
70.50 0.00031
71.00 0.00030
71.50 0.00029
72.00 0.00028
72.50 0.00027
73.00 0.00026
73.50 0.00025
74.00 0.00025
74.50 0.00024
75.00 0.00023
75.50 0.00022
76.00 0.00022
76.50 0.00021
77.00 0.00020
77.50 0.00019
78.00 0.00018
78.50 0.00018
79.00 0.00017
79.50 0.00016
80.00 0.00015
80.50 0.00015
81.00 0.00014
81.50 0.00013
82.00 0.00012
82.50 0.00012
83.00 0.00011
83.50 0.00010
84.00 0.00009
84.50 0.00009
85.00 0.00008
85.50 0.00007
86.00 0.00007
86.50 0.00006
87.00 0.00005
87.50 0.00004
88.00 0.00004
88.50 0.00003
89.00 0.00003
89.50 0.00003
90.00 0.00002
90.00 0.00002
90.50 0.00003
91.00 0.00003
91.50 0.00003
92.00 0.00004
92.50 0.00004
93.00 0.00005
93.50 0.00006
94.00 0.00007
94.50 0.00007
95.00 0.00008
95.50 0.00009
96.00 0.00009
96.50 0.00010
97.00 0.00011
97.50 0.00012
98.00 0.00012
98.50 0.00013
99.00 0.00014
99.50 0.00015
100.00 0.00015
100.50 0.00016
101.00 0.00017
101.50 0.00018
102.00 0.00018
102.50 0.00019
103.00 0.00020
103.50 0.00021
104.00 0.00022
104.50 0.00022
105.00 0.00023
105.50 0.00024
106.00 0.00025
106.50 0.00025
107.00 0.00026
107.50 0.00027
108.00 0.00028
108.50 0.00029
109.00 0.00030
109.50 0.00031
110.00 0.00032
110.50 0.00032
111.00 0.00034
111.50 0.00035
112.00 0.00036
112.50 0.00038
113.00 0.00039
113.50 0.00040
114.00 0.00042
114.50 0.00044
115.00 0.00047
115.50 0.00049
116.00 0.00052
116.50 0.00054
117.00 0.00056
117.50 0.00059
118.00 0.00063
118.50 0.00069
119.00 0.00075
119.50 0.00082
120.00 0.00088
120.50 0.00094
121.00 0.00100
121.50 0.00106
122.00 0.00117
122.50 0.00131
123.00 0.00145
123.50 0.00159
124.00 0.00173
124.50 0.00187
125.00 0.00201
125.50 0.00216
126.00 0.00245
126.50 0.00275
127.00 0.00307
127.50 0.00339
128.00 0.00371
128.50 0.00403
129.00 0.00443
129.50 0.00493
130.00 0.00549
130.50 0.00620
131.00 0.00690
131.50 0.00760
132.00 0.00831
132.50 0.00904
133.00 0.01028
133.50 0.01153
134.00 0.01277
134.50 0.01402
135.00 0.01526
135.50 0.01731
136.00 0.01936
136.50 0.02141
137.00 0.02347
137.50 0.02584
138.00 0.02927
138.50 0.03271
139.00 0.03616
139.50 0.03960
140.00 0.04376
140.50 0.04878
141.00 0.05494
141.50 0.06241
142.00 0.06988
142.50 0.07736
143.00 0.08485
143.50 0.09317
144.00 0.10233
144.50 0.11207
145.00 0.12742
145.50 0.14277
146.00 0.15826
146.50 0.17409
147.00 0.18991
147.50 0.20786
148.00 0.23423
148.50 0.26054
149.00 0.28679
149.50 0.31547
150.00 0.34455
150.50 0.37359
151.00 0.40257
151.50 0.43529
152.00 0.47298
152.50 0.51461
153.00 0.55906
153.50 0.59445
154.00 0.62961
154.50 0.66453
155.00 0.69922
155.50 0.73395
156.00 0.77113
156.50 0.80883
157.00 0.84629
157.50 0.88351
158.00 0.91853
158.50 0.94842
159.00 0.97774
159.50 1.00681
160.00 1.03565
160.50 1.07000
161.00 1.10191
161.50 1.12878
162.00 1.15607
162.50 1.18359
163.00 1.21095
163.50 1.23358
164.00 1.25512
164.50 1.27665
165.00 1.29804
165.50 1.32072
166.00 1.34147
166.50 1.36091
167.00 1.38037
167.50 1.39973
168.00 1.41790
168.50 1.43204
169.00 1.44503
169.50 1.45795
170.00 1.47080
170.50 1.48561
171.00 1.50000
171.50 1.51077
172.00 1.52118
172.50 1.53158
173.00 1.54196
173.50 1.54920
174.00 1.55620
174.50 1.56376
175.00 1.57095
175.50 1.57595
176.00 1.58097
176.50 1.58568
177.00 1.58948
177.50 1.59284
178.00 1.59613
178.50 1.59726
179.00 1.59801
179.50 1.59924
180.00 1.60102
180.00 1.60102
180.50 1.59924
181.00 1.59801
181.50 1.59726
182.00 1.59613
182.50 1.59284
183.00 1.58948
183.50 1.58568
184.00 1.58097
184.50 1.57595
185.00 1.57095
185.50 1.56376
186.00 1.55620
186.50 1.54920
187.00 1.54196
187.50 1.53158
188.00 1.52118
188.50 1.51077
189.00 1.50000
189.50 1.48561
190.00 1.47080
190.50 1.45795
191.00 1.44503
191.50 1.43204
192.00 1.41790
192.50 1.39973
193.00 1.38037
193.50 1.36091
194.00 1.34147
194.50 1.32072
195.00 1.29804
195.50 1.27665
196.00 1.25512
196.50 1.23358
197.00 1.21095
197.50 1.18359
198.00 1.15607
198.50 1.12878
199.00 1.10191
199.50 1.07000
200.00 1.03565
200.50 1.00681
201.00 0.97774
201.50 0.94842
202.00 0.91853
202.50 0.88351
203.00 0.84629
203.50 0.80883
204.00 0.77113
204.50 0.73395
205.00 0.69922
205.50 0.66453
206.00 0.62961
206.50 0.59445
207.00 0.55906
207.50 0.51461
208.00 0.47298
208.50 0.43529
209.00 0.40257
209.50 0.37359
210.00 0.34455
210.50 0.31547
211.00 0.28679
211.50 0.26054
212.00 0.23423
212.50 0.20786
213.00 0.18991
213.50 0.17409
214.00 0.15826
214.50 0.14277
215.00 0.12742
215.50 0.11207
216.00 0.10233
216.50 0.09317
217.00 0.08485
217.50 0.07736
218.00 0.06988
218.50 0.06241
219.00 0.05494
219.50 0.04878
220.00 0.04376
220.50 0.03960
221.00 0.03616
221.50 0.03271
222.00 0.02927
222.50 0.02584
223.00 0.02347
223.50 0.02141
224.00 0.01936
224.50 0.01731
225.00 0.01526
225.50 0.01402
226.00 0.01277
226.50 0.01153
227.00 0.01028
227.50 0.00904
228.00 0.00831
228.50 0.00760
229.00 0.00690
229.50 0.00620
230.00 0.00549
230.50 0.00493
231.00 0.00443
231.50 0.00403
232.00 0.00371
232.50 0.00339
233.00 0.00307
233.50 0.00275
234.00 0.00245
234.50 0.00216
235.00 0.00201
235.50 0.00187
236.00 0.00173
236.50 0.00159
237.00 0.00145
237.50 0.00131
238.00 0.00117
238.50 0.00106
239.00 0.00100
239.50 0.00094
240.00 0.00088
240.50 0.00082
241.00 0.00075
241.50 0.00069
242.00 0.00063
242.50 0.00059
243.00 0.00056
243.50 0.00054
244.00 0.00052
244.50 0.00049
245.00 0.00047
245.50 0.00044
246.00 0.00042
246.50 0.00040
247.00 0.00039
247.50 0.00038
248.00 0.00036
248.50 0.00035
249.00 0.00034
249.50 0.00032
250.00 0.00032
250.50 0.00031
251.00 0.00030
251.50 0.00029
252.00 0.00028
252.50 0.00027
253.00 0.00026
253.50 0.00025
254.00 0.00025
254.50 0.00024
255.00 0.00023
255.50 0.00022
256.00 0.00022
256.50 0.00021
257.00 0.00020
257.50 0.00019
258.00 0.00018
258.50 0.00018
259.00 0.00017
259.50 0.00016
260.00 0.00015
260.50 0.00015
261.00 0.00014
261.50 0.00013
262.00 0.00012
262.50 0.00012
263.00 0.00011
263.50 0.00010
264.00 0.00009
264.50 0.00009
265.00 0.00008
265.50 0.00007
266.00 0.00007
266.50 0.00006
267.00 0.00005
267.50 0.00004
268.00 0.00004
268.50 0.00003
269.00 0.00003
269.50 0.00003
270.00 0.00002
270.00 0.00002
270.50 0.00003
271.00 0.00003
271.50 0.00003
272.00 0.00004
272.50 0.00004
273.00 0.00005
273.50 0.00006
274.00 0.00007
274.50 0.00007
275.00 0.00008
275.50 0.00009
276.00 0.00009
276.50 0.00010
277.00 0.00011
277.50 0.00012
278.00 0.00012
278.50 0.00013
279.00 0.00014
279.50 0.00015
280.00 0.00015
280.50 0.00016
281.00 0.00017
281.50 0.00018
282.00 0.00018
282.50 0.00019
283.00 0.00020
283.50 0.00021
284.00 0.00022
284.50 0.00022
285.00 0.00023
285.50 0.00024
286.00 0.00025
286.50 0.00025
287.00 0.00026
287.50 0.00027
288.00 0.00028
288.50 0.00029
289.00 0.00030
289.50 0.00031
290.00 0.00032
290.50 0.00032
291.00 0.00034
291.50 0.00035
292.00 0.00036
292.50 0.00038
293.00 0.00039
293.50 0.00040
294.00 0.00042
294.50 0.00044
295.00 0.00047
295.50 0.00049
296.00 0.00052
296.50 0.00054
297.00 0.00056
297.50 0.00059
298.00 0.00063
298.50 0.00069
299.00 0.00075
299.50 0.00082
300.00 0.00088
300.50 0.00094
301.00 0.00100
301.50 0.00106
302.00 0.00117
302.50 0.00131
303.00 0.00145
303.50 0.00159
304.00 0.00173
304.50 0.00187
305.00 0.00201
305.50 0.00216
306.00 0.00245
306.50 0.00275
307.00 0.00307
307.50 0.00339
308.00 0.00371
308.50 0.00403
309.00 0.00443
309.50 0.00493
310.00 0.00549
310.50 0.00620
311.00 0.00690
311.50 0.00760
312.00 0.00831
312.50 0.00904
313.00 0.01028
313.50 0.01153
314.00 0.01277
314.50 0.01402
315.00 0.01526
315.50 0.01731
316.00 0.01936
316.50 0.02141
317.00 0.02347
317.50 0.02584
318.00 0.02927
318.50 0.03271
319.00 0.03616
319.50 0.03960
320.00 0.04376
320.50 0.04878
321.00 0.05494
321.50 0.06241
322.00 0.06988
322.50 0.07736
323.00 0.08485
323.50 0.09317
324.00 0.10233
324.50 0.11207
325.00 0.12742
325.50 0.14277
326.00 0.15826
326.50 0.17409
327.00 0.18991
327.50 0.20786
328.00 0.23423
328.50 0.26054
329.00 0.28679
329.50 0.31547
330.00 0.34455
330.50 0.37359
331.00 0.40257
331.50 0.43529
332.00 0.47298
332.50 0.51461
333.00 0.55906
333.50 0.59445
334.00 0.62961
334.50 0.66453
335.00 0.69922
335.50 0.73395
336.00 0.77113
336.50 0.80883
337.00 0.84629
337.50 0.88351
338.00 0.91853
338.50 0.94842
339.00 0.97774
339.50 1.00681
340.00 1.03565
340.50 1.07000
341.00 1.10191
341.50 1.12878
342.00 1.15607
342.50 1.18359
343.00 1.21095
343.50 1.23358
344.00 1.25512
344.50 1.27665
345.00 1.29804
345.50 1.32072
346.00 1.34147
346.50 1.36091
347.00 1.38037
347.50 1.39973
348.00 1.41790
348.50 1.43204
349.00 1.44503
349.50 1.45795
350.00 1.47080
350.50 1.48561
351.00 1.50000
351.50 1.51077
352.00 1.52118
352.50 1.53158
353.00 1.54196
353.50 1.54920
354.00 1.55620
354.50 1.56376
355.00 1.57095
355.50 1.57595
356.00 1.58097
356.50 1.58568
357.00 1.58948
357.50 1.59284
358.00 1.59613
358.50 1.59726
359.00 1.59801
359.50 1.59924
360.00 1.60102
