phi[deg] B[T]
0.00 1.16838
0.50 1.16797
1.00 1.16764
1.50 1.16753
2.00 1.16767
2.50 1.16728
3.00 1.16674
3.50 1.16624
4.00 1.16582
4.50 1.16547
5.00 1.16517
5.50 1.16454
6.00 1.16349
6.50 1.16250
7.00 1.16159
7.50 1.16076
8.00 1.16006
8.50 1.15951
9.00 1.15817
9.50 1.15681
10.00 1.15527
10.50 1.15380
11.00 1.15239
11.50 1.15104
12.00 1.14958
12.50 1.14816
13.00 1.14580
13.50 1.14350
14.00 1.14127
14.50 1.13910
15.00 1.13729
15.50 1.13457
16.00 1.13189
16.50 1.12926
17.00 1.12668
17.50 1.12415
18.00 1.12202
18.50 1.12018
19.00 1.11705
19.50 1.11271
20.00 1.10840
20.50 1.10411
21.00 1.09985
21.50 1.09561
22.00 1.09140
22.50 1.08889
23.00 1.08688
23.50 1.08171
24.00 1.07491
24.50 1.06809
25.00 1.06124
25.50 1.05436
26.00 1.04745
26.50 1.04070
27.00 1.03841
27.50 1.03576
28.00 1.02660
28.50 1.01388
29.00 1.00103
29.50 0.98804
30.00 0.97492
30.50 0.96166
31.00 0.94864
31.50 0.94300
32.00 0.92999
32.50 0.90869
33.00 0.88542
33.50 0.86190
34.00 0.83813
34.50 0.81411
35.00 0.78984
35.50 0.76550
36.00 0.74129
36.50 0.71567
37.00 0.67805
37.50 0.64018
38.00 0.60205
38.50 0.56844
39.00 0.53730
39.50 0.50497
40.00 0.47015
40.50 0.43519
41.00 0.40011
41.50 0.36684
42.00 0.33860
42.50 0.30986
43.00 0.28105
43.50 0.25612
44.00 0.23353
44.50 0.21089
45.00 0.18890
45.50 0.17312
46.00 0.15692
46.50 0.14071
47.00 0.12596
47.50 0.11409
48.00 0.10232
48.50 0.09235
49.00 0.08361
49.50 0.07504
50.00 0.06750
50.50 0.06210
51.00 0.05670
51.50 0.05130
52.00 0.04593
52.50 0.04076
53.00 0.03560
53.50 0.03263
54.00 0.02988
54.50 0.02746
55.00 0.02505
55.50 0.02264
56.00 0.02024
56.50 0.01784
57.00 0.01545
57.50 0.01406
58.00 0.01269
58.50 0.01132
59.00 0.01034
59.50 0.00949
60.00 0.00864
60.50 0.00779
61.00 0.00695
61.50 0.00618
62.00 0.00550
62.50 0.00484
63.00 0.00449
63.50 0.00414
64.00 0.00378
64.50 0.00343
65.00 0.00307
65.50 0.00271
66.00 0.00237
66.50 0.00221
67.00 0.00204
67.50 0.00187
68.00 0.00171
68.50 0.00154
69.00 0.00137
69.50 0.00121
70.00 0.00110
70.50 0.00103
71.00 0.00095
71.50 0.00088
72.00 0.00080
72.50 0.00073
73.00 0.00065
73.50 0.00058
74.00 0.00054
74.50 0.00050
75.00 0.00047
75.50 0.00043
76.00 0.00040
76.50 0.00036
77.00 0.00033
77.50 0.00031
78.00 0.00029
78.50 0.00027
79.00 0.00025
79.50 0.00024
80.00 0.00022
80.50 0.00020
81.00 0.00019
81.50 0.00018
82.00 0.00016
82.50 0.00015
83.00 0.00014
83.50 0.00013
84.00 0.00012
84.50 0.00011
85.00 0.00010
85.50 0.00009
86.00 0.00008
86.50 0.00007
87.00 0.00007
87.50 0.00006
88.00 0.00005
88.50 0.00005
89.00 0.00004
89.50 0.00004
90.00 0.00004
90.00 0.00004
90.50 0.00004
91.00 0.00004
91.50 0.00005
92.00 0.00005
92.50 0.00006
93.00 0.00007
93.50 0.00007
94.00 0.00008
94.50 0.00009
95.00 0.00010
95.50 0.00011
96.00 0.00012
96.50 0.00013
97.00 0.00014
97.50 0.00015
98.00 0.00016
98.50 0.00018
99.00 0.00019
99.50 0.00020
100.00 0.00022
100.50 0.00024
101.00 0.00025
101.50 0.00027
102.00 0.00029
102.50 0.00031
103.00 0.00033
103.50 0.00036
104.00 0.00040
104.50 0.00043
105.00 0.00047
105.50 0.00050
106.00 0.00054
106.50 0.00058
107.00 0.00065
107.50 0.00073
108.00 0.00080
108.50 0.00088
109.00 0.00095
109.50 0.00103
110.00 0.00110
110.50 0.00121
111.00 0.00137
111.50 0.00154
112.00 0.00171
112.50 0.00187
113.00 0.00204
113.50 0.00221
114.00 0.00237
114.50 0.00271
115.00 0.00307
115.50 0.00343
116.00 0.00378
116.50 0.00414
117.00 0.00449
117.50 0.00484
118.00 0.00550
118.50 0.00618
119.00 0.00695
119.50 0.00779
120.00 0.00864
120.50 0.00949
121.00 0.01034
121.50 0.01132
122.00 0.01269
122.50 0.01406
123.00 0.01545
123.50 0.01784
124.00 0.02024
124.50 0.02264
125.00 0.02505
125.50 0.02746
126.00 0.02988
126.50 0.03263
127.00 0.03560
127.50 0.04076
128.00 0.04593
128.50 0.05130
129.00 0.05670
129.50 0.06210
130.00 0.06750
130.50 0.07504
131.00 0.08361
131.50 0.09235
132.00 0.10232
132.50 0.11409
133.00 0.12596
133.50 0.14071
134.00 0.15692
134.50 0.17312
135.00 0.18890
135.50 0.21089
136.00 0.23353
136.50 0.25612
137.00 0.28105
137.50 0.30986
138.00 0.33860
138.50 0.36684
139.00 0.40011
139.50 0.43519
140.00 0.47015
140.50 0.50497
141.00 0.53730
141.50 0.56844
142.00 0.60205
142.50 0.64018
143.00 0.67805
143.50 0.71567
144.00 0.74129
144.50 0.76550
145.00 0.78984
145.50 0.81411
146.00 0.83813
146.50 0.86190
147.00 0.88542
147.50 0.90869
148.00 0.92999
148.50 0.94300
149.00 0.94864
149.50 0.96166
150.00 0.97492
150.50 0.98804
151.00 1.00103
151.50 1.01388
152.00 1.02660
152.50 1.03576
153.00 1.03841
153.50 1.04070
154.00 1.04745
154.50 1.05436
155.00 1.06124
155.50 1.06809
156.00 1.07491
156.50 1.08171
157.00 1.08688
157.50 1.08889
158.00 1.09140
158.50 1.09561
159.00 1.09985
159.50 1.10411
160.00 1.10840
160.50 1.11271
161.00 1.11705
161.50 1.12018
162.00 1.12202
162.50 1.12415
163.00 1.12668
163.50 1.12926
164.00 1.13189
164.50 1.13457
165.00 1.13729
165.50 1.13910
166.00 1.14127
166.50 1.14350
167.00 1.14580
167.50 1.14816
168.00 1.14958
168.50 1.15104
169.00 1.15239
169.50 1.15380
170.00 1.15527
170.50 1.15681
171.00 1.15817
171.50 1.15951
172.00 1.16006
172.50 1.16076
173.00 1.16159
173.50 1.16250
174.00 1.16349
174.50 1.16454
175.00 1.16517
175.50 1.16547
176.00 1.16582
176.50 1.16624
177.00 1.16674
177.50 1.16728
178.00 1.16767
178.50 1.16753
179.00 1.16764
179.50 1.16797
180.00 1.16838
180.00 1.16838
180.50 1.16797
181.00 1.16764
181.50 1.16753
182.00 1.16767
182.50 1.16728
183.00 1.16674
183.50 1.16624
184.00 1.16582
184.50 1.16547
185.00 1.16517
185.50 1.16454
186.00 1.16349
186.50 1.16250
187.00 1.16159
187.50 1.16076
188.00 1.16006
188.50 1.15951
189.00 1.15817
189.50 1.15681
190.00 1.15527
190.50 1.15380
191.00 1.15239
191.50 1.15104
192.00 1.14958
192.50 1.14816
193.00 1.14580
193.50 1.14350
194.00 1.14127
194.50 1.13910
195.00 1.13729
195.50 1.13457
196.00 1.13189
196.50 1.12926
197.00 1.12668
197.50 1.12415
198.00 1.12202
198.50 1.12018
199.00 1.11705
199.50 1.11271
200.00 1.10840
200.50 1.10411
201.00 1.09985
201.50 1.09561
202.00 1.09140
202.50 1.08889
203.00 1.08688
203.50 1.08171
204.00 1.07491
204.50 1.06809
205.00 1.06124
205.50 1.05436
206.00 1.04745
206.50 1.04070
207.00 1.03841
207.50 1.03576
208.00 1.02660
208.50 1.01388
209.00 1.00103
209.50 0.98804
210.00 0.97492
210.50 0.96166
211.00 0.94864
211.50 0.94300
212.00 0.92999
212.50 0.90869
213.00 0.88542
213.50 0.86190
214.00 0.83813
214.50 0.81411
215.00 0.78984
215.50 0.76550
216.00 0.74129
216.50 0.71567
217.00 0.67805
217.50 0.64018
218.00 0.60205
218.50 0.56844
219.00 0.53730
219.50 0.50497
220.00 0.47015
220.50 0.43519
221.00 0.40011
221.50 0.36684
222.00 0.33860
222.50 0.30986
223.00 0.28105
223.50 0.25612
224.00 0.23353
224.50 0.21089
225.00 0.18890
225.50 0.17312
226.00 0.15692
226.50 0.14071
227.00 0.12596
227.50 0.11409
228.00 0.10232
228.50 0.09235
229.00 0.08361
229.50 0.07504
230.00 0.06750
230.50 0.06210
231.00 0.05670
231.50 0.05130
232.00 0.04593
232.50 0.04076
233.00 0.03560
233.50 0.03263
234.00 0.02988
234.50 0.02746
235.00 0.02505
235.50 0.02264
236.00 0.02024
236.50 0.01784
237.00 0.01545
237.50 0.01406
238.00 0.01269
238.50 0.01132
239.00 0.01034
239.50 0.00949
240.00 0.00864
240.50 0.00779
241.00 0.00695
241.50 0.00618
242.00 0.00550
242.50 0.00484
243.00 0.00449
243.50 0.00414
244.00 0.00378
244.50 0.00343
245.00 0.00307
245.50 0.00271
246.00 0.00237
246.50 0.00221
247.00 0.00204
247.50 0.00187
248.00 0.00171
248.50 0.00154
249.00 0.00137
249.50 0.00121
250.00 0.00110
250.50 0.00103
251.00 0.00095
251.50 0.00088
252.00 0.00080
252.50 0.00073
253.00 0.00065
253.50 0.00058
254.00 0.00054
254.50 0.00050
255.00 0.00047
255.50 0.00043
256.00 0.00040
256.50 0.00036
257.00 0.00033
257.50 0.00031
258.00 0.00029
258.50 0.00027
259.00 0.00025
259.50 0.00024
260.00 0.00022
260.50 0.00020
261.00 0.00019
261.50 0.00018
262.00 0.00016
262.50 0.00015
263.00 0.00014
263.50 0.00013
264.00 0.00012
264.50 0.00011
265.00 0.00010
265.50 0.00009
266.00 0.00008
266.50 0.00007
267.00 0.00007
267.50 0.00006
268.00 0.00005
268.50 0.00005
269.00 0.00004
269.50 0.00004
270.00 0.00004
270.00 0.00004
270.50 0.00004
271.00 0.00004
271.50 0.00005
272.00 0.00005
272.50 0.00006
273.00 0.00007
273.50 0.00007
274.00 0.00008
274.50 0.00009
275.00 0.00010
275.50 0.00011
276.00 0.00012
276.50 0.00013
277.00 0.00014
277.50 0.00015
278.00 0.00016
278.50 0.00018
279.00 0.00019
279.50 0.00020
280.00 0.00022
280.50 0.00024
281.00 0.00025
281.50 0.00027
282.00 0.00029
282.50 0.00031
283.00 0.00033
283.50 0.00036
284.00 0.00040
284.50 0.00043
285.00 0.00047
285.50 0.00050
286.00 0.00054
286.50 0.00058
287.00 0.00065
287.50 0.00073
288.00 0.00080
288.50 0.00088
289.00 0.00095
289.50 0.00103
290.00 0.00110
290.50 0.00121
291.00 0.00137
291.50 0.00154
292.00 0.00171
292.50 0.00187
293.00 0.00204
293.50 0.00221
294.00 0.00237
294.50 0.00271
295.00 0.00307
295.50 0.00343
296.00 0.00378
296.50 0.00414
297.00 0.00449
297.50 0.00484
298.00 0.00550
298.50 0.00618
299.00 0.00695
299.50 0.00779
300.00 0.00864
300.50 0.00949
301.00 0.01034
301.50 0.01132
302.00 0.01269
302.50 0.01406
303.00 0.01545
303.50 0.01784
304.00 0.02024
304.50 0.02264
305.00 0.02505
305.50 0.02746
306.00 0.02988
306.50 0.03263
307.00 0.03560
307.50 0.04076
308.00 0.04593
308.50 0.05130
309.00 0.05670
309.50 0.06210
310.00 0.06750
310.50 0.07504
311.00 0.08361
311.50 0.09235
312.00 0.10232
312.50 0.11409
313.00 0.12596
313.50 0.14071
314.00 0.15692
314.50 0.17312
315.00 0.18890
315.50 0.21089
316.00 0.23353
316.50 0.25612
317.00 0.28105
317.50 0.30986
318.00 0.33860
318.50 0.36684
319.00 0.40011
319.50 0.43519
320.00 0.47015
320.50 0.50497
321.00 0.53730
321.50 0.56844
322.00 0.60205
322.50 0.64018
323.00 0.67805
323.50 0.71567
324.00 0.74129
324.50 0.76550
325.00 0.78984
325.50 0.81411
326.00 0.83813
326.50 0.86190
327.00 0.88542
327.50 0.90869
328.00 0.92999
328.50 0.94300
329.00 0.94864
329.50 0.96166
330.00 0.97492
330.50 0.98804
331.00 1.00103
331.50 1.01388
332.00 1.02660
332.50 1.03576
333.00 1.03841
333.50 1.04070
334.00 1.04745
334.50 1.05436
335.00 1.06124
335.50 1.06809
336.00 1.07491
336.50 1.08171
337.00 1.08688
337.50 1.08889
338.00 1.09140
338.50 1.09561
339.00 1.09985
339.50 1.10411
340.00 1.10840
340.50 1.11271
341.00 1.11705
341.50 1.12018
342.00 1.12202
342.50 1.12415
343.00 1.12668
343.50 1.12926
344.00 1.13189
344.50 1.13457
345.00 1.13729
345.50 1.13910
346.00 1.14127
346.50 1.14350
347.00 1.14580
347.50 1.14816
348.00 1.14958
348.50 1.15104
349.00 1.15239
349.50 1.15380
350.00 1.15527
350.50 1.15681
351.00 1.15817
351.50 1.15951
352.00 1.16006
352.50 1.16076
353.00 1.16159
353.50 1.16250
354.00 1.16349
354.50 1.16454
355.00 1.16517
355.50 1.16547
356.00 1.16582
356.50 1.16624
357.00 1.16674
357.50 1.16728
358.00 1.16767
358.50 1.16753
359.00 1.16764
359.50 1.16797
360.00 1.16838
