phi[deg] B[T]
0.00 1.48665
0.50 1.48650
1.00 1.48646
1.50 1.48654
2.00 1.48674
2.50 1.48723
3.00 1.48774
3.50 1.48843
4.00 1.48923
4.50 1.49016
5.00 1.49113
5.50 1.49171
6.00 1.49240
6.50 1.49327
7.00 1.49478
7.50 1.49640
8.00 1.49815
8.50 1.50004
9.00 1.50176
9.50 1.50242
10.00 1.50318
10.50 1.50404
11.00 1.50500
11.50 1.50618
12.00 1.50864
12.50 1.51118
13.00 1.51379
13.50 1.51647
14.00 1.51777
14.50 1.51677
15.00 1.51582
15.50 1.51493
16.00 1.51409
16.50 1.51332
17.00 1.51421
17.50 1.51709
18.00 1.51721
18.50 1.51417
19.00 1.50992
19.50 1.50350
20.00 1.49707
20.50 1.49064
21.00 1.48422
21.50 1.47741
22.00 1.47017
22.50 1.46294
23.00 1.44768
23.50 1.43218
24.00 1.41715
24.50 1.40323
25.00 1.38933
25.50 1.37546
26.00 1.36161
26.50 1.34779
27.00 1.33210
27.50 1.31578
28.00 1.29984
28.50 1.28403
29.00 1.26854
29.50 1.25321
30.00 1.23793
30.50 1.22271
31.00 1.20755
31.50 1.19378
32.00 1.18185
32.50 1.16997
33.00 1.15804
33.50 1.14303
34.00 1.12806
34.50 1.11316
35.00 1.10164
35.50 1.09014
36.00 1.07868
36.50 1.06466
37.00 1.04955
37.50 1.03737
38.00 1.02517
38.50 1.01161
39.00 0.99744
39.50 0.98326
40.00 0.96708
40.50 0.95199
41.00 0.93684
41.50 0.92162
42.00 0.90180
42.50 0.88364
43.00 0.86711
43.50 0.84877
44.00 0.82788
44.50 0.80688
45.00 0.78559
45.50 0.76117
46.00 0.73903
46.50 0.71672
47.00 0.69277
47.50 0.66682
48.00 0.64071
48.50 0.61443
49.00 0.58639
49.50 0.55716
50.00 0.52779
50.50 0.49845
51.00 0.47052
51.50 0.44238
52.00 0.41377
52.50 0.38505
53.00 0.35619
53.50 0.32661
54.00 0.29692
54.50 0.26849
55.00 0.24848
55.50 0.22845
56.00 0.20841
56.50 0.18884
57.00 0.16928
57.50 0.14970
58.00 0.13720
58.50 0.12537
59.00 0.11353
59.50 0.10264
60.00 0.09225
60.50 0.08187
61.00 0.07314
61.50 0.06720
62.00 0.06126
62.50 0.05531
63.00 0.04935
63.50 0.04340
64.00 0.03859
64.50 0.03559
65.00 0.03257
65.50 0.02955
66.00 0.02653
66.50 0.02351
67.00 0.02077
67.50 0.01908
68.00 0.01738
68.50 0.01567
69.00 0.01392
69.50 0.01230
70.00 0.01135
70.50 0.01041
71.00 0.00947
71.50 0.00853
72.00 0.00758
72.50 0.00662
73.00 0.00611
73.50 0.00563
74.00 0.00515
74.50 0.00467
75.00 0.00419
75.50 0.00371
76.00 0.00324
76.50 0.00291
77.00 0.00270
77.50 0.00248
78.00 0.00226
78.50 0.00203
79.00 0.00181
79.50 0.00158
80.00 0.00143
80.50 0.00133
81.00 0.00122
81.50 0.00111
82.00 0.00101
82.50 0.00090
83.00 0.00083
83.50 0.00077
84.00 0.00071
84.50 0.00065
85.00 0.00059
85.50 0.00054
86.00 0.00051
86.50 0.00048
87.00 0.00045
87.50 0.00042
88.00 0.00041
88.50 0.00039
89.00 0.00038
89.50 0.00037
90.00 0.00035
90.00 0.00035
90.50 0.00037
91.00 0.00038
91.50 0.00039
92.00 0.00041
92.50 0.00042
93.00 0.00045
93.50 0.00048
94.00 0.00051
94.50 0.00054
95.00 0.00059
95.50 0.00065
96.00 0.00071
96.50 0.00077
97.00 0.00083
97.50 0.00090
98.00 0.00101
98.50 0.00111
99.00 0.00122
99.50 0.00133
100.00 0.00143
100.50 0.00158
101.00 0.00181
101.50 0.00203
102.00 0.00226
102.50 0.00248
103.00 0.00270
103.50 0.00291
104.00 0.00324
104.50 0.00371
105.00 0.00419
105.50 0.00467
106.00 0.00515
106.50 0.00563
107.00 0.00611
107.50 0.00662
108.00 0.00758
108.50 0.00853
109.00 0.00947
109.50 0.01041
110.00 0.01135
110.50 0.01230
111.00 0.01392
111.50 0.01567
112.00 0.01738
112.50 0.01908
113.00 0.02077
113.50 0.02351
114.00 0.02653
114.50 0.02955
115.00 0.03257
115.50 0.03559
116.00 0.03859
116.50 0.04340
117.00 0.04935
117.50 0.05531
118.00 0.06126
118.50 0.06720
119.00 0.07314
119.50 0.08187
120.00 0.09225
120.50 0.10264
121.00 0.11353
121.50 0.12537
122.00 0.13720
122.50 0.14970
123.00 0.16928
123.50 0.18884
124.00 0.20841
124.50 0.22845
125.00 0.24848
125.50 0.26849
126.00 0.29692
126.50 0.32661
127.00 0.35619
127.50 0.38505
128.00 0.41377
128.50 0.44238
129.00 0.47052
129.50 0.49845
130.00 0.52779
130.50 0.55716
131.00 0.58639
131.50 0.61443
132.00 0.64071
132.50 0.66682
133.00 0.69277
133.50 0.71672
134.00 0.73903
134.50 0.76117
135.00 0.78559
135.50 0.80688
136.00 0.82788
136.50 0.84877
137.00 0.86711
137.50 0.88364
138.00 0.90180
138.50 0.92162
139.00 0.93684
139.50 0.95199
140.00 0.96708
140.50 0.98326
141.00 0.99744
141.50 1.01161
142.00 1.02517
142.50 1.03737
143.00 1.04955
143.50 1.06466
144.00 1.07868
144.50 1.09014
145.00 1.10164
145.50 1.11316
146.00 1.12806
146.50 1.14303
147.00 1.15804
147.50 1.16997
148.00 1.18185
148.50 1.19378
149.00 1.20755
149.50 1.22271
150.00 1.23793
150.50 1.25321
151.00 1.26854
151.50 1.28403
152.00 1.29984
152.50 1.31578
153.00 1.33210
153.50 1.34779
154.00 1.36161
154.50 1.37546
155.00 1.38933
155.50 1.40323
156.00 1.41715
156.50 1.43218
157.00 1.44768
157.50 1.46294
158.00 1.47017
158.50 1.47741
159.00 1.48422
159.50 1.49064
160.00 1.49707
160.50 1.50350
161.00 1.50992
161.50 1.51417
162.00 1.51721
162.50 1.51709
163.00 1.51421
163.50 1.51332
164.00 1.51409
164.50 1.51493
165.00 1.51582
165.50 1.51677
166.00 1.51777
166.50 1.51647
167.00 1.51379
167.50 1.51118
168.00 1.50864
168.50 1.50618
169.00 1.50500
169.50 1.50404
170.00 1.50318
170.50 1.50242
171.00 1.50176
171.50 1.50004
172.00 1.49815
172.50 1.49640
173.00 1.49478
173.50 1.49327
174.00 1.49240
174.50 1.49171
175.00 1.49113
175.50 1.49016
176.00 1.48923
176.50 1.48843
177.00 1.48774
177.50 1.48723
178.00 1.48674
178.50 1.48654
179.00 1.48646
179.50 1.48650
180.00 1.48665
180.00 1.48665
180.50 1.48650
181.00 1.48646
181.50 1.48654
182.00 1.48674
182.50 1.48723
183.00 1.48774
183.50 1.48843
184.00 1.48923
184.50 1.49016
185.00 1.49113
185.50 1.49171
186.00 1.49240
186.50 1.49327
187.00 1.49478
187.50 1.49640
188.00 1.49815
188.50 1.50004
189.00 1.50176
189.50 1.50242
190.00 1.50318
190.50 1.50404
191.00 1.50500
191.50 1.50618
192.00 1.50864
192.50 1.51118
193.00 1.51379
193.50 1.51647
194.00 1.51777
194.50 1.51677
195.00 1.51582
195.50 1.51493
196.00 1.51409
196.50 1.51332
197.00 1.51421
197.50 1.51709
198.00 1.51721
198.50 1.51417
199.00 1.50992
199.50 1.50350
200.00 1.49707
200.50 1.49064
201.00 1.48422
201.50 1.47741
202.00 1.47017
202.50 1.46294
203.00 1.44768
203.50 1.43218
204.00 1.41715
204.50 1.40323
205.00 1.38933
205.50 1.37546
206.00 1.36161
206.50 1.34779
207.00 1.33210
207.50 1.31578
208.00 1.29984
208.50 1.28403
209.00 1.26854
209.50 1.25321
210.00 1.23793
210.50 1.22271
211.00 1.20755
211.50 1.19378
212.00 1.18185
212.50 1.16997
213.00 1.15804
213.50 1.14303
214.00 1.12806
214.50 1.11316
215.00 1.10164
215.50 1.09014
216.00 1.07868
216.50 1.06466
217.00 1.04955
217.50 1.03737
218.00 1.02517
218.50 1.01161
219.00 0.99744
219.50 0.98326
220.00 0.96708
220.50 0.95199
221.00 0.93684
221.50 0.92162
222.00 0.90180
222.50 0.88364
223.00 0.86711
223.50 0.84877
224.00 0.82788
224.50 0.80688
225.00 0.78559
225.50 0.76117
226.00 0.73903
226.50 0.71672
227.00 0.69277
227.50 0.66682
228.00 0.64071
228.50 0.61443
229.00 0.58639
229.50 0.55716
230.00 0.52779
230.50 0.49845
231.00 0.47052
231.50 0.44238
232.00 0.41377
232.50 0.38505
233.00 0.35619
233.50 0.32661
234.00 0.29692
234.50 0.26849
235.00 0.24848
235.50 0.22845
236.00 0.20841
236.50 0.18884
237.00 0.16928
237.50 0.14970
238.00 0.13720
238.50 0.12537
239.00 0.11353
239.50 0.10264
240.00 0.09225
240.50 0.08187
241.00 0.07314
241.50 0.06720
242.00 0.06126
242.50 0.05531
243.00 0.04935
243.50 0.04340
244.00 0.03859
244.50 0.03559
245.00 0.03257
245.50 0.02955
246.00 0.02653
246.50 0.02351
247.00 0.02077
247.50 0.01908
248.00 0.01738
248.50 0.01567
249.00 0.01392
249.50 0.01230
250.00 0.01135
250.50 0.01041
251.00 0.00947
251.50 0.00853
252.00 0.00758
252.50 0.00662
253.00 0.00611
253.50 0.00563
254.00 0.00515
254.50 0.00467
255.00 0.00419
255.50 0.00371
256.00 0.00324
256.50 0.00291
257.00 0.00270
257.50 0.00248
258.00 0.00226
258.50 0.00203
259.00 0.00181
259.50 0.00158
260.00 0.00143
260.50 0.00133
261.00 0.00122
261.50 0.00111
262.00 0.00101
262.50 0.00090
263.00 0.00083
263.50 0.00077
264.00 0.00071
264.50 0.00065
265.00 0.00059
265.50 0.00054
266.00 0.00051
266.50 0.00048
267.00 0.00045
267.50 0.00042
268.00 0.00041
268.50 0.00039
269.00 0.00038
269.50 0.00037
270.00 0.00035
270.00 0.00035
270.50 0.00037
271.00 0.00038
271.50 0.00039
272.00 0.00041
272.50 0.00042
273.00 0.00045
273.50 0.00048
274.00 0.00051
274.50 0.00054
275.00 0.00059
275.50 0.00065
276.00 0.00071
276.50 0.00077
277.00 0.00083
277.50 0.00090
278.00 0.00101
278.50 0.00111
279.00 0.00122
279.50 0.00133
280.00 0.00143
280.50 0.00158
281.00 0.00181
281.50 0.00203
282.00 0.00226
282.50 0.00248
283.00 0.00270
283.50 0.00291
284.00 0.00324
284.50 0.00371
285.00 0.00419
285.50 0.00467
286.00 0.00515
286.50 0.00563
287.00 0.00611
287.50 0.00662
288.00 0.00758
288.50 0.00853
289.00 0.00947
289.50 0.01041
290.00 0.01135
290.50 0.01230
291.00 0.01392
291.50 0.01567
292.00 0.01738
292.50 0.01908
293.00 0.02077
293.50 0.02351
294.00 0.02653
294.50 0.02955
295.00 0.03257
295.50 0.03559
296.00 0.03859
296.50 0.04340
297.00 0.04935
297.50 0.05531
298.00 0.06126
298.50 0.06720
299.00 0.07314
299.50 0.08187
300.00 0.09225
300.50 0.10264
301.00 0.11353
301.50 0.12537
302.00 0.13720
302.50 0.14970
303.00 0.16928
303.50 0.18884
304.00 0.20841
304.50 0.22845
305.00 0.24848
305.50 0.26849
306.00 0.29692
306.50 0.32661
307.00 0.35619
307.50 0.38505
308.00 0.41377
308.50 0.44238
309.00 0.47052
309.50 0.49845
310.00 0.52779
310.50 0.55716
311.00 0.58639
311.50 0.61443
312.00 0.64071
312.50 0.66682
313.00 0.69277
313.50 0.71672
314.00 0.73903
314.50 0.76117
315.00 0.78559
315.50 0.80688
316.00 0.82788
316.50 0.84877
317.00 0.86711
317.50 0.88364
318.00 0.90180
318.50 0.92162
319.00 0.93684
319.50 0.95199
320.00 0.96708
320.50 0.98326
321.00 0.99744
321.50 1.01161
322.00 1.02517
322.50 1.03737
323.00 1.04955
323.50 1.06466
324.00 1.07868
324.50 1.09014
325.00 1.10164
325.50 1.11316
326.00 1.12806
326.50 1.14303
327.00 1.15804
327.50 1.16997
328.00 1.18185
328.50 1.19378
329.00 1.20755
329.50 1.22271
330.00 1.23793
330.50 1.25321
331.00 1.26854
331.50 1.28403
332.00 1.29984
332.50 1.31578
333.00 1.33210
333.50 1.34779
334.00 1.36161
334.50 1.37546
335.00 1.38933
335.50 1.40323
336.00 1.41715
336.50 1.43218
337.00 1.44768
337.50 1.46294
338.00 1.47017
338.50 1.47741
339.00 1.48422
339.50 1.49064
340.00 1.49707
340.50 1.50350
341.00 1.50992
341.50 1.51417
342.00 1.51721
342.50 1.51709
343.00 1.51421
343.50 1.51332
344.00 1.51409
344.50 1.51493
345.00 1.51582
345.50 1.51677
346.00 1.51777
346.50 1.51647
347.00 1.51379
347.50 1.51118
348.00 1.50864
348.50 1.50618
349.00 1.50500
349.50 1.50404
350.00 1.50318
350.50 1.50242
351.00 1.50176
351.50 1.50004
352.00 1.49815
352.50 1.49640
353.00 1.49478
353.50 1.49327
354.00 1.49240
354.50 1.49171
355.00 1.49113
355.50 1.49016
356.00 1.48923
356.50 1.48843
357.00 1.48774
357.50 1.48723
358.00 1.48674
358.50 1.48654
359.00 1.48646
359.50 1.48650
360.00 1.48665
