phi[deg] B[T]
0.00 1.20993
0.50 1.20943
1.00 1.20933
1.50 1.20930
2.00 1.20908
2.50 1.20846
3.00 1.20779
3.50 1.20703
4.00 1.20621
4.50 1.20540
5.00 1.20466
5.50 1.20297
6.00 1.20123
6.50 1.19989
7.00 1.19864
7.50 1.19682
8.00 1.19446
8.50 1.19215
9.00 1.18990
9.50 1.18755
10.00 1.18454
10.50 1.18155
11.00 1.17859
11.50 1.17565
12.00 1.17407
12.50 1.17147
13.00 1.16651
13.50 1.16155
14.00 1.15660
14.50 1.15126
15.00 1.14482
15.50 1.13909
16.00 1.13332
16.50 1.12751
17.00 1.12472
17.50 1.11734
18.00 1.10706
18.50 1.09669
19.00 1.08641
19.50 1.07384
20.00 1.06002
20.50 1.04776
21.00 1.03535
21.50 1.02382
22.00 1.01403
22.50 0.99233
23.00 0.97042
23.50 0.94828
24.00 0.92804
24.50 0.90158
25.00 0.87498
25.50 0.85055
26.00 0.82583
26.50 0.79964
27.00 0.76908
27.50 0.73295
28.00 0.69653
28.50 0.65982
29.00 0.62472
29.50 0.59071
30.00 0.55698
30.50 0.52304
31.00 0.48581
31.50 0.44734
32.00 0.41331
32.50 0.37913
33.00 0.34879
33.50 0.31900
34.00 0.29463
34.50 0.27137
35.00 0.24763
35.50 0.22345
36.00 0.19925
36.50 0.17709
37.00 0.16253
37.50 0.14948
38.00 0.13642
38.50 0.12337
39.00 0.11031
39.50 0.09725
40.00 0.08554
40.50 0.07869
41.00 0.07184
41.50 0.06483
42.00 0.05782
42.50 0.05080
43.00 0.04603
43.50 0.04190
44.00 0.03787
44.50 0.03384
45.00 0.02981
45.50 0.02736
46.00 0.02491
46.50 0.02247
47.00 0.02003
47.50 0.01759
48.00 0.01615
48.50 0.01477
49.00 0.01339
49.50 0.01202
50.00 0.01064
50.50 0.00953
51.00 0.00856
51.50 0.00776
52.00 0.00713
52.50 0.00651
53.00 0.00588
53.50 0.00525
54.00 0.00466
54.50 0.00409
55.00 0.00378
55.50 0.00350
56.00 0.00322
56.50 0.00294
57.00 0.00266
57.50 0.00238
58.00 0.00210
58.50 0.00187
59.00 0.00174
59.50 0.00162
60.00 0.00149
60.50 0.00136
61.00 0.00123
61.50 0.00110
62.00 0.00097
62.50 0.00088
63.00 0.00083
63.50 0.00078
64.00 0.00073
64.50 0.00067
65.00 0.00062
65.50 0.00057
66.00 0.00051
66.50 0.00048
67.00 0.00045
67.50 0.00043
68.00 0.00041
68.50 0.00038
69.00 0.00036
69.50 0.00033
70.00 0.00032
70.50 0.00031
71.00 0.00030
71.50 0.00029
72.00 0.00028
72.50 0.00026
73.00 0.00025
73.50 0.00024
74.00 0.00023
74.50 0.00023
75.00 0.00022
75.50 0.00021
76.00 0.00020
76.50 0.00019
77.00 0.00018
77.50 0.00018
78.00 0.00017
78.50 0.00016
79.00 0.00015
79.50 0.00015
80.00 0.00014
80.50 0.00013
81.00 0.00013
81.50 0.00012
82.00 0.00011
82.50 0.00011
83.00 0.00010
83.50 0.00009
84.00 0.00008
84.50 0.00008
85.00 0.00007
85.50 0.00006
86.00 0.00006
86.50 0.00005
87.00 0.00004
87.50 0.00004
88.00 0.00003
88.50 0.00003
89.00 0.00003
89.50 0.00002
90.00 0.00002
90.00 0.00002
90.50 0.00002
91.00 0.00003
91.50 0.00003
92.00 0.00003
92.50 0.00004
93.00 0.00004
93.50 0.00005
94.00 0.00006
94.50 0.00006
95.00 0.00007
95.50 0.00008
96.00 0.00008
96.50 0.00009
97.00 0.00010
97.50 0.00011
98.00 0.00011
98.50 0.00012
99.00 0.00013
99.50 0.00013
100.00 0.00014
100.50 0.00015
101.00 0.00015
101.50 0.00016
102.00 0.00017
102.50 0.00018
103.00 0.00018
103.50 0.00019
104.00 0.00020
104.50 0.00021
105.00 0.00022
105.50 0.00023
106.00 0.00023
106.50 0.00024
107.00 0.00025
107.50 0.00026
108.00 0.00028
108.50 0.00029
109.00 0.00030
109.50 0.00031
110.00 0.00032
110.50 0.00033
111.00 0.00036
111.50 0.00038
112.00 0.00041
112.50 0.00043
113.00 0.00045
113.50 0.00048
114.00 0.00051
114.50 0.00057
115.00 0.00062
115.50 0.00067
116.00 0.00073
116.50 0.00078
117.00 0.00083
117.50 0.00088
118.00 0.00097
118.50 0.00110
119.00 0.00123
119.50 0.00136
120.00 0.00149
120.50 0.00162
121.00 0.00174
121.50 0.00187
122.00 0.00210
122.50 0.00238
123.00 0.00266
123.50 0.00294
124.00 0.00322
124.50 0.00350
125.00 0.00378
125.50 0.00409
126.00 0.00466
126.50 0.00525
127.00 0.00588
127.50 0.00651
128.00 0.00713
128.50 0.00776
129.00 0.00856
129.50 0.00953
130.00 0.01064
130.50 0.01202
131.00 0.01339
131.50 0.01477
132.00 0.01615
132.50 0.01759
133.00 0.02003
133.50 0.02247
134.00 0.02491
134.50 0.02736
135.00 0.02981
135.50 0.03384
136.00 0.03787
136.50 0.04190
137.00 0.04603
137.50 0.05080
138.00 0.05782
138.50 0.06483
139.00 0.07184
139.50 0.07869
140.00 0.08554
140.50 0.09725
141.00 0.11031
141.50 0.12337
142.00 0.13642
142.50 0.14948
143.00 0.16253
143.50 0.17709
144.00 0.19925
144.50 0.22345
145.00 0.24763
145.50 0.27137
146.00 0.29463
146.50 0.31900
147.00 0.34879
147.50 0.37913
148.00 0.41331
148.50 0.44734
149.00 0.48581
149.50 0.52304
150.00 0.55698
150.50 0.59071
151.00 0.62472
151.50 0.65982
152.00 0.69653
152.50 0.73295
153.00 0.76908
153.50 0.79964
154.00 0.82583
154.50 0.85055
155.00 0.87498
155.50 0.90158
156.00 0.92804
156.50 0.94828
157.00 0.97042
157.50 0.99233
158.00 1.01403
158.50 1.02382
159.00 1.03535
159.50 1.04776
160.00 1.06002
160.50 1.07384
161.00 1.08641
161.50 1.09669
162.00 1.10706
162.50 1.11734
163.00 1.12472
163.50 1.12751
164.00 1.13332
164.50 1.13909
165.00 1.14482
165.50 1.15126
166.00 1.15660
166.50 1.16155
167.00 1.16651
167.50 1.17147
168.00 1.17407
168.50 1.17565
169.00 1.17859
169.50 1.18155
170.00 1.18454
170.50 1.18755
171.00 1.18990
171.50 1.19215
172.00 1.19446
172.50 1.19682
173.00 1.19864
173.50 1.19989
174.00 1.20123
174.50 1.20297
175.00 1.20466
175.50 1.20540
176.00 1.20621
176.50 1.20703
177.00 1.20779
177.50 1.20846
178.00 1.20908
178.50 1.20930
179.00 1.20933
179.50 1.20943
180.00 1.20993
180.00 1.20993
180.50 1.20943
181.00 1.20933
181.50 1.20930
182.00 1.20908
182.50 1.20846
183.00 1.20779
183.50 1.20703
184.00 1.20621
184.50 1.20540
185.00 1.20466
185.50 1.20297
186.00 1.20123
186.50 1.19989
187.00 1.19864
187.50 1.19682
188.00 1.19446
188.50 1.19215
189.00 1.18990
189.50 1.18755
190.00 1.18454
190.50 1.18155
191.00 1.17859
191.50 1.17565
192.00 1.17407
192.50 1.17147
193.00 1.16651
193.50 1.16155
194.00 1.15660
194.50 1.15126
195.00 1.14482
195.50 1.13909
196.00 1.13332
196.50 1.12751
197.00 1.12472
197.50 1.11734
198.00 1.10706
198.50 1.09669
199.00 1.08641
199.50 1.07384
200.00 1.06002
200.50 1.04776
201.00 1.03535
201.50 1.02382
202.00 1.01403
202.50 0.99233
203.00 0.97042
203.50 0.94828
204.00 0.92804
204.50 0.90158
205.00 0.87498
205.50 0.85055
206.00 0.82583
206.50 0.79964
207.00 0.76908
207.50 0.73295
208.00 0.69653
208.50 0.65982
209.00 0.62472
209.50 0.59071
210.00 0.55698
210.50 0.52304
211.00 0.48581
211.50 0.44734
212.00 0.41331
212.50 0.37913
213.00 0.34879
213.50 0.31900
214.00 0.29463
214.50 0.27137
215.00 0.24763
215.50 0.22345
216.00 0.19925
216.50 0.17709
217.00 0.16253
217.50 0.14948
218.00 0.13642
218.50 0.12337
219.00 0.11031
219.50 0.09725
220.00 0.08554
220.50 0.07869
221.00 0.07184
221.50 0.06483
222.00 0.05782
222.50 0.05080
223.00 0.04603
223.50 0.04190
224.00 0.03787
224.50 0.03384
225.00 0.02981
225.50 0.02736
226.00 0.02491
226.50 0.02247
227.00 0.02003
227.50 0.01759
228.00 0.01615
228.50 0.01477
229.00 0.01339
229.50 0.01202
230.00 0.01064
230.50 0.00953
231.00 0.00856
231.50 0.00776
232.00 0.00713
232.50 0.00651
233.00 0.00588
233.50 0.00525
234.00 0.00466
234.50 0.00409
235.00 0.00378
235.50 0.00350
236.00 0.00322
236.50 0.00294
237.00 0.00266
237.50 0.00238
238.00 0.00210
238.50 0.00187
239.00 0.00174
239.50 0.00162
240.00 0.00149
240.50 0.00136
241.00 0.00123
241.50 0.00110
242.00 0.00097
242.50 0.00088
243.00 0.00083
243.50 0.00078
244.00 0.00073
244.50 0.00067
245.00 0.00062
245.50 0.00057
246.00 0.00051
246.50 0.00048
247.00 0.00045
247.50 0.00043
248.00 0.00041
248.50 0.00038
249.00 0.00036
249.50 0.00033
250.00 0.00032
250.50 0.00031
251.00 0.00030
251.50 0.00029
252.00 0.00028
252.50 0.00026
253.00 0.00025
253.50 0.00024
254.00 0.00023
254.50 0.00023
255.00 0.00022
255.50 0.00021
256.00 0.00020
256.50 0.00019
257.00 0.00018
257.50 0.00018
258.00 0.00017
258.50 0.00016
259.00 0.00015
259.50 0.00015
260.00 0.00014
260.50 0.00013
261.00 0.00013
261.50 0.00012
262.00 0.00011
262.50 0.00011
263.00 0.00010
263.50 0.00009
264.00 0.00008
264.50 0.00008
265.00 0.00007
265.50 0.00006
266.00 0.00006
266.50 0.00005
267.00 0.00004
267.50 0.00004
268.00 0.00003
268.50 0.00003
269.00 0.00003
269.50 0.00002
270.00 0.00002
270.00 0.00002
270.50 0.00002
271.00 0.00003
271.50 0.00003
272.00 0.00003
272.50 0.00004
273.00 0.00004
273.50 0.00005
274.00 0.00006
274.50 0.00006
275.00 0.00007
275.50 0.00008
276.00 0.00008
276.50 0.00009
277.00 0.00010
277.50 0.00011
278.00 0.00011
278.50 0.00012
279.00 0.00013
279.50 0.00013
280.00 0.00014
280.50 0.00015
281.00 0.00015
281.50 0.00016
282.00 0.00017
282.50 0.00018
283.00 0.00018
283.50 0.00019
284.00 0.00020
284.50 0.00021
285.00 0.00022
285.50 0.00023
286.00 0.00023
286.50 0.00024
287.00 0.00025
287.50 0.00026
288.00 0.00028
288.50 0.00029
289.00 0.00030
289.50 0.00031
290.00 0.00032
290.50 0.00033
291.00 0.00036
291.50 0.00038
292.00 0.00041
292.50 0.00043
293.00 0.00045
293.50 0.00048
294.00 0.00051
294.50 0.00057
295.00 0.00062
295.50 0.00067
296.00 0.00073
296.50 0.00078
297.00 0.00083
297.50 0.00088
298.00 0.00097
298.50 0.00110
299.00 0.00123
299.50 0.00136
300.00 0.00149
300.50 0.00162
301.00 0.00174
301.50 0.00187
302.00 0.00210
302.50 0.00238
303.00 0.00266
303.50 0.00294
304.00 0.00322
304.50 0.00350
305.00 0.00378
305.50 0.00409
306.00 0.00466
306.50 0.00525
307.00 0.00588
307.50 0.00651
308.00 0.00713
308.50 0.00776
309.00 0.00856
309.50 0.00953
310.00 0.01064
310.50 0.01202
311.00 0.01339
311.50 0.01477
312.00 0.01615
312.50 0.01759
313.00 0.02003
313.50 0.02247
314.00 0.02491
314.50 0.02736
315.00 0.02981
315.50 0.03384
316.00 0.03787
316.50 0.04190
317.00 0.04603
317.50 0.05080
318.00 0.05782
318.50 0.06483
319.00 0.07184
319.50 0.07869
320.00 0.08554
320.50 0.09725
321.00 0.11031
321.50 0.12337
322.00 0.13642
322.50 0.14948
323.00 0.16253
323.50 0.17709
324.00 0.19925
324.50 0.22345
325.00 0.24763
325.50 0.27137
326.00 0.29463
326.50 0.31900
327.00 0.34879
327.50 0.37913
328.00 0.41331
328.50 0.44734
329.00 0.48581
329.50 0.52304
330.00 0.55698
330.50 0.59071
331.00 0.62472
331.50 0.65982
332.00 0.69653
332.50 0.73295
333.00 0.76908
333.50 0.79964
334.00 0.82583
334.50 0.85055
335.00 0.87498
335.50 0.90158
336.00 0.92804
336.50 0.94828
337.00 0.97042
337.50 0.99233
338.00 1.01403
338.50 1.02382
339.00 1.03535
339.50 1.04776
340.00 1.06002
340.50 1.07384
341.00 1.08641
341.50 1.09669
342.00 1.10706
342.50 1.11734
343.00 1.12472
343.50 1.12751
344.00 1.13332
344.50 1.13909
345.00 1.14482
345.50 1.15126
346.00 1.15660
346.50 1.16155
347.00 1.16651
347.50 1.17147
348.00 1.17407
348.50 1.17565
349.00 1.17859
349.50 1.18155
350.00 1.18454
350.50 1.18755
351.00 1.18990
351.50 1.19215
352.00 1.19446
352.50 1.19682
353.00 1.19864
353.50 1.19989
354.00 1.20123
354.50 1.20297
355.00 1.20466
355.50 1.20540
356.00 1.20621
356.50 1.20703
357.00 1.20779
357.50 1.20846
358.00 1.20908
358.50 1.20930
359.00 1.20933
359.50 1.20943
360.00 1.20993
